Folder: rapid/data/xrd/xy (part 16)

File: 2019-08-28T18_53_30.435495+00_00_LBL_G2.xy
'Id: "" Comment: "Integrate frame pyridinium0_00_003.gfrmwith cursor Wedge Cursor #1" Operator: "UC Berkeley" Anode: "Co" Scantype: "TwoTheta" TimePerStep: "600"
13.81 -0.024995
13.995 0.0718838
14.18 0.0204224
14.365 0.0296456
14.55 0.0202597
14.735 0.0232806
14.92 0.0396279
15.105 0.0759728
15.29 0.0526133
15.475 0.0288479
15.66 0.0317998
15.845 0.005365
16.03 0.0145734
16.215 0.0394542
16.4 0.0290389
16.585 0.0304466
16.77 0.0352322
16.955 0.0428351
17.14 0.0280946
17.325 0.0241333
17.51 0.0211486
17.695 0.0450875
17.88 0.0417043
18.065 0.0278106
18.25 0.0289387
18.435 0.0472947
18.62 0.039819
18.805 0.0479744
18.99 0.0591343
19.175 0.0253863
19.36 0.0249887
19.545 0.0170776
19.73 0.0444723
19.915 0.0250422
20.1 0.0211733
20.285 0.0387199
20.47 0.057076
20.655 0.0103204
20.84 0.205665
21.025 0.0268529
21.21 0.0551536
21.395 0.0689036
21.58 0.0522618
21.765 0.0213718
21.95 0.0107892
22.135 0.023865
22.32 0.0283811
22.505 0.0165308
22.69 0.0151172
22.875 0.0443624
23.06 0.152328
23.245 0.363016
23.43 0.0453232
23.615 0.0169584
23.8 0.0117185
23.985 -0.0193673
24.17 0.0379929
24.355 0.0282986
24.54 0.0358878
24.725 0.00708431
24.91 0.0289578
25.095 0.0404444
25.28 0.0507299
25.465 0.169283
25.65 0.0608613
25.835 0.0225318
26.02 0.0133047
26.205 0.0156115
26.39 0.06195
26.575 0.0423024
26.76 0.0107165
26.945 -0.0141439
27.13 0.00104811
27.315 0.0226266
27.5 -0.00155598
27.685 0.0146301
27.87 0.0231173
28.055 0.699175
28.24 1.45351
28.425 0.0718737
28.61 0.0309471
28.795 0.00365866
28.98 0.0387579
29.165 0.0681167
29.35 0.0586005
29.535 0.181163
29.72 0.165348
29.905 0.0123924
30.09 0.0453008
30.275 0.0382125
30.46 0.345607
30.645 0.580204
30.83 0.0293904
31.015 0.0119015
31.2 -0.00729255
31.385 -0.0148083
31.57 0.0103898
31.755 7.11424e-05
31.94 0.0107865
32.125 0.216679
32.31 0.658517
32.495 0.0821216
32.68 0.016435
32.865 -0.00216234
33.05 0.0592853
33.235 0.161299
33.42 0.0109947
33.605 8.97109e-05
33.79 -0.00102662
33.975 0.0771677
34.16 0.0601364
34.345 0.0234287
34.53 0.0941968
34.715 1.21276
34.9 1.07783
35.085 0.102589
35.27 -0.00192852
35.455 0.00186041
35.64 0.00668939
35.825 0.0324016
36.01 0.594817
36.195 0.371013
36.38 0.810674
36.565 0.502888
36.75 0.0224199
36.935 0.0339266
37.12 0.00573448
37.305 0.0309232
37.49 -0.00346368
37.675 0.0141623
37.86 0.314889
38.045 0.761572
38.23 0.113391
38.415 0.00216251
38.6 0.0495072
38.785 0.067682
38.97 0.00735378
39.155 -0.00219248
39.34 0.0274915
39.525 0.032921
39.71 -0.00649266
39.895 0.0191077
40.08 0.0492597
40.265 0.0725895
40.45 -0.00413314
40.635 -0.00638488
40.82 0.0300445
41.005 0.00599656
41.19 0.00538411
41.375 0.0628428
41.56 0.21634
41.745 0.0912088
41.93 0.0904747
42.115 0.432623
42.3 0.689943
42.485 0.824472
42.67 0.0753806
42.855 0.0752225
43.04 0.151422
43.225 0.0246657
43.41 0.368339
43.595 0.162154
43.78 0.135667
43.965 0.0042351
44.15 -0.00540933
44.335 0.00690618
44.52 0.0565347
44.705 0.697787
44.89 0.493599
45.075 0.192673
45.26 0.0199051
45.445 0.0215404
45.63 0.0132796
45.815 0.0216191
46 0.0224964
46.185 0.136999
46.37 0.241342
46.555 0.126705
46.74 0.149973
46.925 0.0558706
47.11 0.11707
47.295 0.779005
47.48 1.31548
47.665 1.13874
47.85 0.200268
48.035 0.0444196
48.22 0.0479124
48.405 0.0250001
48.59 0.00929223
48.775 -0.00925572
48.96 -0.00304731
49.145 -0.00578817
49.33 0.054226
49.515 0.103369
49.7 0.0799785
49.885 0.144375
50.07 0.0624445
50.255 0.0386186
50.44 0.0335511
50.625 0.291213
50.81 0.452399
50.995 0.138549
51.18 0.12128
51.365 0.136812
51.55 0.0473158
51.735 -0.0115147
51.92 0.00120995
52.105 0.0167597
52.29 0.08527
52.475 0.243898
52.66 0.130719
52.845 0.0285318
53.03 0.178857
53.215 0.27557
53.4 0.13409
53.585 0.0793246
53.77 0.0238186
53.955 0.092222
54.14 0.414458
54.325 0.411243
54.51 0.0989013
54.695 0.0333684
54.88 0.0249387
55.065 0.00178542
55.25 0.0122348
55.435 0.0257391
55.62 0.0581115
55.805 0.175701
55.99 0.182358
56.175 0.0361644
56.36 -0.0172443
56.545 -0.00114452
56.73 0.0148955
56.915 -4.74758e-05
57.1 0.0319702
57.285 0.0715512
57.47 0.161205
57.655 0.180421
57.84 0.057376
58.025 0.0790073
58.21 0.15723
58.395 0.101285
58.58 0.0444462
58.765 0.053874
58.95 0.0679564
59.135 0.00981107
59.32 0.000124943
59.505 0.022491
59.69 0.164027
59.875 0.391519
60.06 0.22966
60.245 0.0563452
60.43 -0.00594965
60.615 0.00485755
60.8 0.0266587
60.985 0.0428847
61.17 0.0686174
61.355 0.107113
61.54 0.131162
61.725 0.03372
61.91 -0.0168116
62.095 0.0337443
62.28 0.116827
62.465 0.0605541
62.65 0.0173753
62.835 0.0275854
63.02 0.0374693
63.205 0.00349223
63.39 0.00560382
63.575 0.0486502
63.76 0.0943069
63.945 0.0155148
64.13 -0.010467
64.315 0.112413
64.5 0.183213
64.685 0.182722
64.87 0.0638615
65.055 0.0102438
65.24 -0.000201959
65.425 0.0178978
65.61 0.0721368
65.795 0.0799094
65.98 0.0354054
66.165 0.0703253
66.35 0.0424521
66.535 0.00784016
66.72 0.00161358
66.905 0.00654783
67.09 0.00634993
67.275 0.0580609
67.46 0.113629
67.645 0.138045
67.83 0.0618896
68.015 0.042068
68.2 0.0419733
68.385 0.0294322
68.57 0.015902
68.755 0.0101559
68.94 -0.00570441
68.995 -0.0156522

File: 2019-09-05T19_43_09.232228+00_00_LBL_A6.xy
'Id: "" Comment: "Integrate frame Morph_03_001.gfrmwith cursor Wedge Cursor #3" Operator: "UC Berkeley" Anode: "Co" Scantype: "TwoTheta" TimePerStep: "500"
13.835 -0.027791
14.035 0.0881784
14.235 0.06526
14.435 0.0656253
14.635 0.120756
14.835 0.000120538
15.035 -0.0199221
15.235 0.0351994
15.435 -0.00240027
15.635 0.0805302
15.835 0.0366765
16.035 0.167135
16.235 0.0849373
16.435 0.106171
16.635 0.0474416
16.835 0.089798
17.035 0.0551691
17.235 0.00681313
17.435 0.05636
17.635 0.358599
17.835 0.187506
18.035 0.0554909
18.235 0.0457491
18.435 0.0288693
18.635 0.0792694
18.835 0.0834841
19.035 0.0417636
19.235 0.0126345
19.435 0.0244192
19.635 0.0568524
19.835 0.0658809
20.035 0.0387312
20.235 0.0536757
20.435 0.0481181
20.635 0.0607991
20.835 0.00838509
21.035 0.0405034
21.235 0.00655688
21.435 0.0285165
21.635 0.0337339
21.835 0.082643
22.035 0.0835025
22.235 0.0362086
22.435 0.0568483
22.635 0.0397754
22.835 0.0256176
23.035 -0.0118363
23.235 0.0388531
23.435 0.0266079
23.635 0.0403
23.835 0.0166195
24.035 0.0518074
24.235 0.0587497
24.435 0.0626152
24.635 -0.00352765
24.835 0.0599284
25.035 0.0155631
25.235 0.0295023
25.435 0.0192004
25.635 0.0339796
25.835 0.0407424
26.035 0.0369775
26.235 0.129364
26.435 2.74799
26.635 4.41242
26.835 0.120405
27.035 0.330012
27.235 0.106503
27.435 0.0482181
27.635 0.0186756
27.835 0.0233646
28.035 0.0543874
28.235 0.0566884
28.435 0.0232946
28.635 0.0437344
28.835 0.0373472
29.035 -0.000911762
29.235 0.0558356
29.435 0.10209
29.635 0.084636
29.835 -0.00161091
30.035 0.0101811
30.235 0.0901096
30.435 0.146459
30.635 -0.002268
30.835 0.0229291
31.035 0.00857641
31.235 0.0285971
31.435 0.0274369
31.635 0.0493409
31.835 0.220641
32.035 0.368342
32.235 0.0688684
32.435 0.865504
32.635 0.166501
32.835 0.112797
33.035 0.350274
33.235 0.0902199
33.435 0.0132761
33.635 -0.0248906
33.835 0.0138839
34.035 0.0182601
34.235 0.291564
34.435 0.505532
34.635 -0.00217571
34.835 -0.0182771
35.035 0.0459643
35.235 0.283355
35.435 0.568446
35.635 7.20175
35.835 1.44844
36.035 0.417772
36.235 0.0456889
36.435 0.0172623
36.635 0.0154226
36.835 0.0124307
37.035 -0.0111743
37.235 -0.0135075
37.435 0.0529278
37.635 0.0885431
37.835 0.0669359
38.035 0.0144685
38.235 0.0829171
38.435 0.73622
38.635 0.220603
38.835 0.00222348
39.035 -0.0160884
39.235 0.0259011
39.435 0.0595967
39.635 0.0239479
39.835 0.00609046
40.035 0.148908
40.235 0.268144
40.435 0.100885
40.635 0.329507
40.835 0.043592
41.035 -0.00786749
41.235 0.0057547
41.435 0.0192514
41.635 0.037187
41.835 -0.0129094
42.035 0.0083098
42.235 -0.0025863
42.435 0.00255655
42.635 0.096914
42.835 0.076141
43.035 -0.00891079
43.235 -0.00126105
43.435 0.0561979
43.635 0.0864079
43.835 -0.0031539
44.035 0.140379
44.235 0.365661
44.435 0.0796934
44.635 0.0839057
44.835 0.227997
45.035 0.643325
45.235 0.109216
45.435 0.00718261
45.635 0.0317769
45.835 0.0602605
46.035 -0.0119654
46.235 0.0341335
46.435 0.0725339
46.635 0.110506
46.835 0.577722
47.035 0.244999
47.235 0.0419582
47.435 0.0438627
47.635 0.0127347
47.835 -0.0155336
48.035 -0.00425433
48.235 0.0768502
48.435 0.0590551
48.635 0.0543656
48.835 0.120853
49.035 0.0746428
49.235 0.0148854
49.435 0.0639115
49.635 0.101157
49.835 0.0589211
50.035 0.120909
50.235 0.0205329
50.435 -0.012722
50.635 0.00572403
50.835 0.059247
51.035 0.252322
51.235 0.0821835
51.435 -0.00903744
51.635 0.0141814
51.835 0.0302295
52.035 0.0406782
52.235 0.102117
52.435 0.0910788
52.635 -0.00838527
52.835 -0.0129072
53.035 -0.0133937
53.235 7.08186e-05
53.435 0.00837998
53.635 -0.00273309
53.835 -0.0126332
54.035 0.0653865
54.235 0.0794065
54.435 0.00565741
54.635 0.0951425
54.835 0.119763
55.035 -0.0151252
55.235 -0.00463083
55.435 0.0525708
55.635 0.236261
55.835 0.573016
56.035 0.187086
56.235 0.043631
56.435 0.00876536
56.635 0.00174786
56.835 0.00418303
57.035 -0.0179884
57.235 -0.00336938
57.435 0.00469318
57.635 0.0687751
57.835 0.0884579
58.035 0.0681349
58.235 0.0885335
58.435 0.0673636
58.635 0.0279575
58.835 0.00843107
59.035 0.00958925
59.235 0.0194652
59.435 -0.000197424
59.635 -0.00286953
59.835 0.0187119
60.035 -0.00961918
60.235 0.011529
60.435 0.00278722
60.635 0.00577925
60.835 0.03823
61.035 0.0443026
61.235 0.120956
61.435 0.17
61.635 0.0853653
61.835 0.0216801
62.035 0.00048523
62.235 0.0610455
62.435 0.0432196
62.635 0.0179712
62.835 -0.00108371
63.035 0.0461421
63.235 0.118871
63.435 0.0697379
63.635 0.0722679
63.835 0.0122955
64.035 0.00072887
64.235 0.0348531
64.435 0.0390488
64.635 0.194754
64.835 0.551095
65.035 0.53135
65.235 0.0742553
65.435 -0.0107073
65.635 -0.00117905
65.835 0.00223345
66.035 0.0613685
66.235 0.10252
66.435 0.0714173
66.635 0.0186956
66.835 0.00207135
67.035 0.00952118
67.235 0.0230611
67.435 0.0230232
67.635 0.0455557
67.835 0.0793306
68.035 0.104967
68.235 0.188931
68.435 0.0947082
68.635 0.0312452
68.835 0.00423959
69.035 0.000405656
69.235 0.014261
69.435 0.0384544
69.635 0.030509
69.835 0.0365944
70.035 0.0128046
70.235 -0.0109201
70.435 0.00170648
70.635 0.0149513
70.835 0.000119434
71.035 0.0321441
71.235 0.150191
71.435 0.289017
71.635 0.23103
71.835 0.114613
72.035 0.0757501
72.235 0.0323253
72.435 0.00180297
72.635 0.0120797
72.835 0.0405532
73.035 0.00147031
73.15 -0.0168709

File: 2019-09-05T19_43_09.232228+00_00_LBL_D3.xy
'Id: "" Comment: "Integrate frame Morph_02_001.gfrmwith cursor Wedge Cursor #2" Operator: "UC Berkeley" Anode: "Co" Scantype: "TwoTheta" TimePerStep: "500"
13.82 -0.0270323
14.015 0.0696063
14.21 0.0724293
14.405 0.0968645
14.6 0.0247645
14.795 -0.0144011
14.99 0.0612269
15.185 0.0450555
15.38 0.0376004
15.575 0.00904404
15.77 0.0317327
15.965 0.0823478
16.16 0.0592558
16.355 0.0477837
16.55 0.00926937
16.745 -8.87505e-05
16.94 0.0716921
17.135 -0.0110322
17.33 0.0896463
17.525 0.403043
17.72 0.333894
17.915 0.0763062
18.11 0.0263448
18.305 0.014178
18.5 0.0517628
18.695 0.0624852
18.89 0.0396188
19.085 0.0102565
19.28 0.00621391
19.475 0.0208103
19.67 0.0056218
19.865 0.0196048
20.06 0.00616885
20.255 0.0681904
20.45 0.0296733
20.645 -0.00222633
20.84 0.0374744
21.035 0.0186382
21.23 0.00975825
21.425 0.0255994
21.62 0.035888
21.815 0.0295071
22.01 0.0598939
22.205 0.0629116
22.4 0.0345539
22.595 0.138422
22.79 0.027539
22.985 0.0446293
23.18 0.039641
23.375 0.0101364
23.57 0.0177999
23.765 0.0549261
23.96 0.055007
24.155 0.0454021
24.35 0.120487
24.545 0.0123571
24.74 0.0224319
24.935 -0.0112933
25.13 0.0204736
25.325 0.00480134
25.52 0.0185214
25.715 0.0950554
25.91 0.082894
26.105 0.087114
26.3 0.489785
26.495 10.5899
26.69 2.82572
26.885 0.200335
27.08 0.562209
27.275 0.0886857
27.47 0.0147608
27.665 0.0412075
27.86 0.00528422
28.055 0.196099
28.25 0.109143
28.445 0.187967
28.64 0.46322
28.835 0.147319
29.03 -0.0261155
29.225 0.0680702
29.42 0.111271
29.615 0.123892
29.81 0.0149862
30.005 0.00457726
30.2 0.0735371
30.395 0.224824
30.59 0.0229246
30.785 0.0188341
30.98 0.0136104
31.175 0.00486206
31.37 0.0597254
31.565 0.324347
31.76 0.188189
31.955 0.68124
32.15 0.175526
32.345 0.389868
32.54 0.671769
32.735 0.11202
32.93 0.42303
33.125 0.330363
33.32 0.111712
33.515 -0.0220789
33.71 0.130301
33.905 0.180125
34.1 0.0874067
34.295 0.462385
34.49 0.216647
34.685 0.124981
34.88 0.0750071
35.075 0.282919
35.27 0.395615
35.465 1.54451
35.66 9.94226
35.855 1.60516
36.05 0.625854
36.245 0.370194
36.44 0.0347271
36.635 -0.000104264
36.83 0.07373
37.025 0.00817056
37.22 -0.0251729
37.415 0.0043525
37.61 0.0646681
37.805 0.0708407
38 0.00273488
38.195 0.0706082
38.39 0.538239
38.585 0.389122
38.78 0.0234736
38.975 -0.0127991
39.17 0.0199458
39.365 0.0847159
39.56 0.0132176
39.755 -0.00294355
39.95 0.0855122
40.145 0.339769
40.34 0.157477
40.535 0.222774
40.73 0.146186
40.925 0.114892
41.12 0.167196
41.315 0.0366692
41.51 0.00833056
41.705 -0.00721559
41.9 -0.0175175
42.095 0.0126007
42.29 -0.0166172
42.485 0.110222
42.68 0.27947
42.875 0.0454533
43.07 0.0125674
43.265 0.0439101
43.46 0.102352
43.655 0.131073
43.85 0.0780883
44.045 0.224617
44.24 0.353857
44.435 0.0682748
44.63 0.0776612
44.825 0.258386
45.02 0.633955
45.215 0.159715
45.41 0.039448
45.605 0.00646864
45.8 0.0251148
45.995 -0.00618363
46.19 0.006373
46.385 0.0906024
46.58 0.131885
46.775 0.312602
46.97 0.279814
47.165 0.0663239
47.36 0.0113105
47.555 0.00946176
47.75 0.000250409
47.945 -0.00112571
48.14 0.0227687
48.335 0.0470875
48.53 0.0529061
48.725 0.0715754
48.92 0.10525
49.115 0.0483365
49.31 0.0332858
49.505 0.0516308
49.7 0.0495495
49.895 0.0742018
50.09 0.0799034
50.285 0.00243793
50.48 -0.00554018
50.675 0.0270063
50.87 0.0865089
51.065 0.226529
51.26 0.133641
51.455 -0.00810072
51.65 0.0160865
51.845 0.0758288
52.04 0.0725145
52.235 0.0736066
52.43 0.0822649
52.625 0.0219727
52.82 0.00533551
53.015 0.00558138
53.21 0.0181451
53.405 0.0417969
53.6 -0.00561332
53.795 0.00802882
53.99 0.04951
54.185 0.0575224
54.38 -0.00241515
54.575 0.076281
54.77 0.0998897
54.965 0.0248709
55.16 0.00514061
55.355 0.00218439
55.55 0.0835567
55.745 0.207446
55.94 0.307185
56.135 0.126927
56.33 0.0425167
56.525 0.0356604
56.72 -0.00443319
56.915 0.000310311
57.11 -0.0130377
57.305 0.012798
57.5 0.0104561
57.695 0.089361
57.89 0.0639623
58.085 0.0493317
58.28 0.0900107
58.475 0.0406878
58.67 0.0569533
58.865 0.0456905
59.06 0.0393738
59.255 0.000702275
59.45 0.00993209
59.645 0.0302564
59.84 0.00662779
60.035 0.00746902
60.23 0.0128955
60.425 -0.0126923
60.62 0.0251852
60.815 -0.00423214
61.01 0.0422102
61.205 0.0883862
61.4 0.10989
61.595 0.131424
61.79 0.0113007
61.985 0.00721003
62.18 0.0119584
62.375 0.0235539
62.57 0.0308138
62.765 0.0318929
62.96 0.0112315
63.155 0.0152762
63.35 0.0521083
63.545 0.037183
63.74 0.0110521
63.935 0.0048309
64.13 0.0243689
64.325 0.0414241
64.52 0.204951
64.715 0.427158
64.91 0.343972
65.105 0.142049
65.3 -0.0185309
65.495 0.00259844
65.69 0.0178211
65.885 0.0359108
66.08 0.0559946
66.275 0.0977207
66.47 0.0452868
66.665 0.00589706
66.86 -0.00655932
67.055 0.0142692
67.25 0.0266095
67.445 0.017032
67.64 0.0239392
67.835 0.0665157
68.03 0.0865699
68.225 0.0898265
68.42 0.0920833
68.615 0.021562
68.81 0.0132069
69.005 0.0127399
69.2 0.00296889
69.395 0.0144906
69.59 0.0365559
69.785 0.0170509
69.98 -0.0012488
70.175 -0.000981114
70.37 0.00317178
70.565 0.000626965
70.76 -0.00133557
70.955 0.0229877
71.15 0.092783
71.345 0.145721
71.54 0.204238
71.735 0.134234
71.93 0.0551181
72.065 -0.0197511

File: 2019-09-05T19_43_09.232228+00_00_LBL_G5.xy
'Id: "" Comment: "Integrate frame Morph_01_001.gfrmwith cursor Wedge Cursor #1" Operator: "UC Berkeley" Anode: "Co" Scantype: "TwoTheta" TimePerStep: "500"
13.28 -0.0440599
13.485 1.21424
13.69 0.394367
13.895 0.0308616
14.1 0.0110663
14.305 0.0496037
14.51 -0.0081777
14.715 -0.00575208
14.92 0.0804692
15.125 0.0180028
15.33 0.0143747
15.535 0.131553
15.74 0.0622649
15.945 -0.0106007
16.15 0.0511355
16.355 0.0384623
16.56 0.0637517
16.765 0.0302486
16.97 0.0475181
17.175 0.0546124
17.38 0.0474504
17.585 0.0216323
17.79 3.04058e-05
17.995 0.0236477
18.2 0.0546645
18.405 0.0535306
18.61 0.093227
18.815 0.0710572
19.02 0.0890698
19.225 0.0742878
19.43 0.05558
19.635 0.0142712
19.84 -0.00823703
20.045 0.0635696
20.25 0.0900925
20.455 0.0733222
20.66 0.0809509
20.865 0.0717074
21.07 0.0536682
21.275 0.113719
21.48 0.0118739
21.685 0.0702715
21.89 0.0743977
22.095 0.114415
22.3 0.0243525
22.505 0.062515
22.71 0.0703674
22.915 0.0335045
23.12 0.0534157
23.325 0.0461731
23.53 0.123836
23.735 0.050946
23.94 0.0031306
24.145 0.114863
24.35 0.024477
24.555 0.050225
24.76 -0.00239196
24.965 0.0396689
25.17 0.0203315
25.375 0.000140997
25.58 0.0720452
25.785 0.0379507
25.99 0.113612
26.195 0.0516082
26.4 0.0391031
26.605 0.0782709
26.81 0.0577866
27.015 0.0428592
27.22 0.116864
27.425 0.0729125
27.63 0.0351054
27.835 -0.0181444
28.04 0.0659852
28.245 0.00101317
28.45 0.00740268
28.655 0.0648056
28.86 0.287702
29.065 -0.0106831
29.27 0.0370962
29.475 0.0220171
29.68 0.0198195
29.885 0.0611415
30.09 0.250047
30.295 0.0378553
30.5 0.0255865
30.705 0.022882
30.91 0.0322629
31.115 0.0135981
31.32 0.0317665
31.525 0.0288823
31.73 0.060858
31.935 -0.0038685
32.14 0.0665041
32.345 0.0340735
32.55 -0.012051
32.755 0.00652653
32.96 0.0139552
33.165 0.0471326
33.37 0.0469053
33.575 0.0473494
33.78 0.0546489
33.985 0.0596626
34.19 0.0265627
34.395 0.0801972
34.6 0.0648511
34.805 0.124381
35.01 0.0245948
35.215 0.0225842
35.42 0.0463944
35.625 0.0281468
35.83 -0.013618
36.035 0.075141
36.24 0.515574
36.445 0.150985
36.65 -0.0178028
36.855 0.0136246
37.06 0.0302951
37.265 0.120695
37.47 0.144894
37.675 0.0352718
37.88 0.0227479
38.085 0.0120466
38.29 0.0184719
38.495 0.0333732
38.7 0.0328959
38.905 0.0314444
39.11 0.0176285
39.315 0.0352891
39.52 -0.0149716
39.725 0.0205061
39.93 0.0401661
40.135 0.0188685
40.34 0.0172259
40.545 0.00853774
40.75 0.0252854
40.955 0.0262172
41.16 0.0832116
41.365 0.427766
41.57 0.0854072
41.775 -0.00112572
41.98 0.0212966
42.185 0.0409249
42.39 -0.00629528
42.595 0.0296226
42.8 0.0483519
43.005 -0.010068
43.21 -0.0115978
43.415 0.0179796
43.62 0.0293941
43.825 0.0146449
44.03 0.0206981
44.235 0.0467399
44.44 0.0300233
44.645 0.0949957
44.85 0.0392562
45.055 0.0287452
45.26 0.0500128
45.465 0.00786624
45.67 -0.0146486
45.875 0.0238083
46.08 0.0235384
46.285 0.00760209
46.49 0.0100843
46.695 0.0158063
46.9 0.0225972
47.105 0.0129647
47.31 0.0334521
47.515 0.0153888
47.72 0.0483975
47.925 0.342829
48.13 1.82684
48.335 0.237627
48.54 0.0199318
48.745 0.0106922
48.95 0.0375076
49.155 0.0432002
49.36 0.00441978
49.565 0.00378318
49.77 0.0543115
49.975 0.233075
50.18 1.11418
50.385 0.473391
50.59 0.0465791
50.795 0.00575867
51 0.0395259
51.205 0.00703551
51.41 0.0103859
51.615 0.0413349
51.82 0.102002
52.025 0.131243
52.23 0.0215331
52.435 0.00911595
52.64 0.00909225
52.845 0.0409969
53.05 0.0382583
53.255 0.00924716
53.46 0.0233607
53.665 0.0265831
53.87 0.0481567
54.075 0.02054
54.28 0.0263713
54.485 -0.0108454
54.69 0.0211391
54.895 -0.0076072
55.1 -0.00420722
55.305 0.00286335
55.51 -0.00106466
55.715 -0.00906926
55.92 0.0117569
56.125 0.0415332
56.33 0.0341378
56.535 0.00829574
56.74 0.035944
56.945 0.0641761
57.15 0.0242652
57.355 0.00873148
57.56 0.0541065
57.765 0.130872
57.97 0.0953692
58.175 0.0261179
58.38 0.0112464
58.585 0.0435568
58.79 0.0319297
58.995 0.0447736
59.2 0.0220432
59.405 0.0167595
59.61 0.010346
59.815 0.00800171
60.02 0.00479389
60.225 0.0328855
60.43 0.0314874
60.635 0.0266576
60.84 -0.00326481
61.045 0.0504587
61.25 0.0373658
61.455 0.138053
61.66 0.358086
61.865 0.186699
62.07 0.068401
62.275 0.159441
62.48 0.123665
62.685 0.0619229
62.89 0.0279104
63.095 -0.0179525
63.3 0.0197711
63.505 0.0262339
63.71 0.0115785
63.915 0.0157166
64.12 0.0128616
64.325 0.015035
64.53 0.013763
64.735 0.0394773
64.94 0.044831
65.145 0.0302869
65.35 0.0129871
65.555 0.00232409
65.76 0.0149344
65.965 0.0236581
66.17 0.0210202
66.375 0.0163271
66.58 0.0399888
66.785 0.0254517
66.99 0.0240143
67.195 0.00235928
67.4 0.0263995
67.605 0.0340321
67.81 0.0238359
68.015 0.0412626
68.22 0.00467189
68.425 0.0101988
68.63 0.0250718
68.835 -0.00223991
69.04 0.0113005
69.245 0.00145034
69.45 -0.0106195
69.655 0.00670349
69.86 0.00326837
70.065 0.0395811
70.27 0.0163917
70.475 0.0154996
70.68 0.0293718
70.885 0.0481207
71.09 0.132821
71.295 0.249721
71.5 0.0462749
71.705 0.0285355
71.91 0.0146681
72.115 0.033523
72.32 0.0310675
72.525 0.0131631
72.73 0.0140242
72.935 0.0218276
73.14 0.0196441
73.345 0.0255408
73.55 0.0242993
73.755 0.0374726
73.96 0.0174032
74.165 0.0234024
74.37 -0.00612254
74.43 -0.015547

File: 2019-09-12T19_30_45.894318+00_00_LBL_B12.xy
'Id: "" Comment: "Integrate frame nhexyl1_00_003.gfrmwith cursor Wedge Cursor #1" Operator: "UC Berkeley" Anode: "Co" Scantype: "TwoTheta" TimePerStep: "600"
13.655 -0.0249823
13.85 0.0278069
14.045 0.0426229
14.24 0.0658225
14.435 0.0108495
14.63 0.000823719
14.825 0.0140786
15.02 0.0357427
15.215 0.0389919
15.41 0.0304394
15.605 0.036478
15.8 0.0430889
15.995 -0.00867997
16.19 -0.00532231
16.385 0.0120025
16.58 -0.00192003
16.775 0.0197829
16.97 0.0296492
17.165 -0.00965467
17.36 -0.00276683
17.555 0.0635075
17.75 0.0803899
17.945 0.0121783
18.14 0.0213317
18.335 0.0225157
18.53 0.0272433
18.725 0.336058
18.92 0.999357
19.115 0.0224152
19.31 0.0380408
19.505 -0.00417867
19.7 0.0476743
19.895 0.0171973
20.09 0.04095
20.285 0.0477236
20.48 -0.00355509
20.675 0.0459004
20.87 -0.0269293
21.065 0.0160539
21.26 0.0242633
21.455 0.0109336
21.65 0.0284061
21.845 0.00534504
22.04 0.0239483
22.235 0.0160463
22.43 0.037182
22.625 0.00830638
22.82 0.0645877
23.015 0.0589712
23.21 0.0411742
23.405 0.0324905
23.6 0.0212202
23.795 0.0327574
23.99 0.0611014
24.185 0.0441673
24.38 0.084329
24.575 0.0815667
24.77 0.188128
24.965 0.459439
25.16 9.35294
25.355 12.0875
25.55 0.446433
25.745 0.172961
25.94 0.0864875
26.135 0.0917991
26.33 0.0842863
26.525 0.116246
26.72 0.0409059
26.915 0.0192091
27.11 0.0542541
27.305 0.0625667
27.5 0.0362909
27.695 0.079599
27.89 0.116865
28.085 0.0248691
28.28 -0.000338769
28.475 0.052413
28.67 0.00689936
28.865 0.045351
29.06 0.0231467
29.255 0.0337465
29.45 0.0252536
29.645 -0.0134725
29.84 0.0350688
30.035 0.016616
30.23 0.000371976
30.425 -0.00489792
30.62 0.0415928
30.815 0.0911942
31.01 0.165658
31.205 0.319638
31.4 0.717224
31.595 8.43067
31.79 30.5224
31.985 1.67346
32.18 0.422931
32.375 0.236452
32.57 0.0813006
32.765 0.0478622
32.96 0.102141
33.155 0.104891
33.35 0.086313
33.545 0.00621805
33.74 0.016545
33.935 0.00631257
34.13 0.00503011
34.325 -0.00743556
34.52 0.00545394
34.715 -0.00634685
34.91 -0.0219116
35.105 0.0203774
35.3 0.00646448
35.495 0.00914429
35.69 0.0100522
35.885 0.0306208
36.08 0.000443522
36.275 0.00250842
36.47 0.00473225
36.665 0.023402
36.86 0.0187157
37.055 0.118595
37.25 0.0322694
37.445 0.0178084
37.64 0.0622593
37.835 0.158773
38.03 0.323436
38.225 3.71358
38.42 4.47534
38.615 0.472669
38.81 0.257766
39.005 0.2746
39.2 0.0230074
39.395 -0.00256723
39.59 0.0131015
39.785 0.0268434
39.98 0.0191068
40.175 0.00493821
40.37 -0.0191503
40.565 -0.00131242
40.76 -0.0241349
40.955 0.0126191
41.15 0.00764199
41.345 0.00795439
41.54 0.00836858
41.735 -0.0161335
41.93 -0.00732599
42.125 0.0128156
42.32 -0.00628891
42.515 -0.002761
42.71 0.0100883
42.905 0.0357141
43.1 -0.014247
43.295 -0.00844829
43.49 0.000605904
43.685 0.0217571
43.88 -0.00191846
44.075 -0.00639918
44.27 0.00267846
44.465 -0.00697834
44.66 0.0209547
44.855 0.16172
45.05 0.910947
45.245 0.238655
45.44 0.016315
45.635 -0.0072103
45.83 -0.0118331
46.025 0.00435022
46.22 -0.0209048
46.415 -0.00192882
46.61 0.00594458
46.805 0.0302764
47 -0.00122763
47.195 -0.0217504
47.39 -0.00287851
47.585 -0.01147
47.78 0.00412614
47.975 0.0095922
48.17 0.00287463
48.365 -0.00102648
48.56 0.000111588
48.755 -0.0117213
48.95 -0.00598499
49.145 -0.00377523
49.34 -0.0149862
49.535 -0.0114681
49.73 -0.0213413
49.925 -0.000253829
50.12 0.00443804
50.315 -0.00140771
50.51 -0.0125609
50.705 -0.0178401
50.9 -0.00419583
51.095 -0.000228657
51.29 -0.00192433
51.485 -0.000140054
51.68 0.015615
51.875 0.0258507
52.07 -0.00376257
52.265 -0.00306056
52.46 0.0242683
52.655 0.0142354
52.85 -0.00234804
53.045 -0.00348419
53.24 0.0235654
53.435 0.0189487
53.63 0.00901213
53.825 0.0110823
54.02 -0.0050409
54.215 0.00852058
54.41 0.000758076
54.605 0.00860404
54.8 0.00157691
54.995 0.00288775
55.19 -0.00399063
55.385 0.00325421
55.58 0.00384312
55.775 -0.0095008
55.97 0.0016531
56.165 -0.0148125
56.36 0.00609146
56.555 0.00367992
56.75 0.00514373
56.945 0.00822431
57.14 -0.0104027
57.335 -0.0128282
57.53 0.0117967
57.725 0.00263812
57.92 0.0201793
58.115 -0.00144848
58.31 0.00619537
58.505 -0.00354971
58.7 -0.00399387
58.895 0.0251573
59.09 0.0478515
59.285 0.0177646
59.48 0.0207449
59.675 -0.002328
59.87 -0.00841448
60.065 -0.0157345
60.26 -0.00665463
60.455 -0.00175076
60.65 0.0149377
60.845 -0.0175194
61.04 0.0097253
61.235 0.00815168
61.43 0.000286174
61.625 0.00222336
61.82 0.018526
62.015 -0.0048623
62.21 0.0169539
62.405 -0.00804254
62.6 -0.00266787
62.795 0.0016257
62.99 0.00324406
63.185 0.00934754
63.38 0.00206655
63.575 0.0100436
63.77 -0.0142715
63.965 -0.00887546
64.16 -0.00267
64.355 0.0109689
64.55 -0.00422057
64.745 -0.013475
64.94 0.0423569
65.135 0.122826
65.33 0.160267
65.525 0.0882119
65.72 0.0252726
65.915 0.0117944
66.11 -0.00648163
66.305 0.0303862
66.5 -0.00396286
66.695 0.00747922
66.89 0.00922488
67.085 0.00495171
67.28 0.00281421
67.475 0.0031084
67.67 0.0156378
67.865 0.0176912
68.06 0.00937209
68.255 -0.00241
68.45 0.0165839
68.645 0.00810155
68.84 -0.00192023
69.035 0.0311907
69.23 0.019199
69.425 0.0129276
69.62 0.00379731
69.815 -0.0117114
70.01 0.00960603
70.205 0.0121904
70.4 0.00517006
70.595 -0.00111339
70.79 -0.0035772
70.985 -0.0130353
71.085 -0.0192856