Folder: rapid/data/xrd/xy (part 4)

File: 2018-09-24T17_37_31.739860+00_00_LBL.xy
'Id: "" Comment: "Integrate frame perovskite0_01_001.gfrmwith cursor Wedge Cursor #1" Operator: "UC Berkeley" Anode: "Co" Scantype: "TwoTheta" TimePerStep: "300"
16.01 -0.036583
16.205 0.0171365
16.4 0.0337742
16.595 0.0253128
16.79 0.0370562
16.985 0.0127035
17.18 0.0301367
17.375 0.0393625
17.57 0.0280575
17.765 0.0370944
17.96 0.0458754
18.155 0.0627425
18.35 0.0365751
18.545 0.0387946
18.74 0.067999
18.935 0.0512362
19.13 0.040815
19.325 0.0337474
19.52 0.0385908
19.715 0.0452734
19.91 0.0557813
20.105 0.0725838
20.3 0.0566554
20.495 0.0309905
20.69 0.0128138
20.885 0.017119
21.08 0.0720529
21.275 0.0437263
21.47 0.0367292
21.665 0.0703001
21.86 0.0565433
22.055 0.0230807
22.25 0.0357021
22.445 -0.0167287
22.64 0.0464792
22.835 0.0344734
23.03 0.0396465
23.225 0.024685
23.42 0.0464533
23.615 0.0246912
23.81 0.0367926
24.005 0.0571926
24.2 0.0103038
24.395 0.0180099
24.59 0.00649566
24.785 0.0381349
24.98 0.0408425
25.175 0.0406477
25.37 0.022845
25.565 0.0583161
25.76 0.0291263
25.955 0.0297688
26.15 0.131014
26.345 0.138874
26.54 0.0544551
26.735 0.0144934
26.93 0.016503
27.125 -0.00195375
27.32 0.0073758
27.515 0.00877759
27.71 0.0198025
27.905 0.0746557
28.1 0.0423652
28.295 0.0320228
28.49 0.0338775
28.685 0.00784277
28.88 0.0180151
29.075 0.0528979
29.27 0.0344651
29.465 0.029635
29.66 0.0542618
29.855 0.0198027
30.05 0.0170776
30.245 0.000276004
30.44 0.0343572
30.635 0.231736
30.83 0.0994902
31.025 -0.00273768
31.22 0.0203435
31.415 0.00642743
31.61 0.0147616
31.805 0.038633
32 -0.00172455
32.195 0.0116474
32.39 -0.016185
32.585 0.0140195
32.78 0.0818922
32.975 0.0232421
33.17 0.000852181
33.365 0.01454
33.56 0.00529693
33.755 -0.00240929
33.95 -0.000881489
34.145 -0.00858835
34.34 -0.00141003
34.535 -0.00748524
34.73 -0.00673068
34.925 0.0110061
35.12 -0.000193915
35.315 -0.0140097
35.51 0.0326326
35.705 0.118396
35.9 0.0213433
36.095 -0.00473744
36.29 0.00362482
36.485 0.0270204
36.68 0.165957
36.875 0.171967
37.07 0.0251761
37.265 0.0137464
37.46 -0.00131855
37.655 -0.00482149
37.85 -0.0131372
38.045 -0.00784476
38.24 0.0671897
38.435 0.183493
38.63 0.043428
38.825 0.0129728
39.02 0.0030324
39.215 0.0129994
39.41 0.0199147
39.605 0.0269408
39.8 0.0194536
39.995 0.016436
40.19 0.00879487
40.385 0.0169371
40.58 0.0135683
40.775 -1.19957e-05
40.97 -0.000921862
41.165 -0.0107105
41.36 -0.00466966
41.555 -0.015707
41.75 0.00172777
41.945 0.0206334
42.14 0.0144216
42.335 0.00586209
42.53 0.0134285
42.725 -0.010954
42.92 -3.4233e-05
43.115 0.00913555
43.31 0.00153176
43.505 0.0118985
43.7 -0.00289521
43.895 -0.0142602
44.09 -0.00501971
44.285 0.00883408
44.48 0.000903401
44.675 0.0069776
44.87 -0.00370612
45.065 0.011901
45.26 0.00936985
45.455 -0.00111871
45.65 0.021237
45.845 0.0270932
46.04 0.00527029
46.235 0.00858364
46.43 0.00599965
46.625 0.0082665
46.82 0.0559852
47.015 0.201527
47.21 0.293015
47.405 0.0204915
47.6 0.006603
47.795 0.00182643
47.99 0.00724829
48.185 0.0144744
48.38 -0.00581225
48.575 0.0221694
48.77 0.149662
48.965 0.165559
49.16 0.0550209
49.355 0.00483847
49.55 0.000985864
49.745 0.00529387
49.94 0.102919
50.135 0.179731
50.33 0.0431577
50.525 0.0103137
50.72 -0.00108962
50.915 0.0428036
51.11 0.0377709
51.305 -0.0015733
51.5 -0.00396
51.695 -0.000136801
51.89 0.00311093
52.085 -0.0141307
52.28 -0.000129482
52.475 -0.00838542
52.67 0.0209529
52.865 0.0393128
53.06 0.0141458
53.255 0.00475159
53.45 0.00889539
53.645 0.00619903
53.84 0.0248664
54.035 -0.00363824
54.23 -0.0033537
54.425 -0.00678288
54.62 -0.000139133
54.815 0.0113457
55.01 0.006754
55.205 0.0211528
55.4 0.0131848
55.595 0.0181899
55.79 0.0451696
55.985 0.0269811
56.18 0.0208829
56.375 0.00895061
56.57 -0.00999997
56.765 -0.00333923
56.96 0.00774435
57.155 0.00345413
57.35 0.000427265
57.545 -0.00160045
57.74 0.0166405
57.935 0.0356901
58.13 0.253155
58.325 0.0763428
58.52 0.0705111
58.715 0.0861875
58.91 0.0394936
59.105 0.00885697
59.3 0.00857999
59.495 0.020061
59.69 0.00776801
59.885 0.0105434
60.08 -9.65003e-05
60.275 -0.00183269
60.47 -0.0030752
60.665 0.00136936
60.86 0.0203149
61.055 0.087294
61.25 0.0394931
61.445 0.0127332
61.64 0.0181503
61.835 0.00611165
62.03 0.00286724
62.225 0.0228621
62.42 0.0209289
62.615 0.0378514
62.81 0.0302414
63.005 0.0176994
63.2 -0.000330419
63.395 0.0152547
63.59 0.0504759
63.785 0.0854122
63.98 0.0406554
64.175 0.0144452
64.37 0.00469149
64.565 0.00251106
64.76 -0.0127116
64.955 0.0017858
65.15 0.0110024
65.345 -0.003278
65.54 0.0210054
65.735 -0.003052
65.93 0.0194742
66.125 0.0139925
66.32 0.00778946
66.515 0.0237695
66.71 0.0258647
66.905 0.0395229
67.1 0.0361752
67.295 0.0223084
67.49 -0.0050837
67.685 0.0211094
67.88 -0.0056085
68.075 0.00823039
68.27 0.000391731
68.465 0.0141296
68.66 0.038721
68.855 0.0278862
69.05 0.0284041
69.245 0.0121216
69.44 0.00744292
69.635 0.0174223
69.83 0.0136611
70.025 0.00541024
70.22 0.00819954
70.415 0.0107525
70.61 0.0203262
70.805 0.0123291
71 0.123906
71.195 0.0991235
71.39 0.0341237
71.585 0.0297303
71.78 0.0392653
71.975 -0.00964812
72.17 0.00114735
72.365 0.0185795
72.56 0.0565287
72.755 0.033903
72.95 -0.0117298
73.145 -0.00690839
73.195 -0.0146144

File: 2018-10-15T17_59_51.765248+00_00_LBL.xy
'Id: "" Comment: "Integrate frame Perovskite0_02_001.gfrmwith cursor Wedge Cursor #2" Operator: "UC Berkeley" Anode: "Co" Scantype: "TwoTheta" TimePerStep: "900"
15.205 -0.0166276
15.41 0.0113387
15.615 0.000347324
15.82 0.0116382
16.025 0.00658535
16.23 0.0182696
16.435 0.0249877
16.64 0.0190839
16.845 0.0250576
17.05 0.00774514
17.255 0.020075
17.46 0.011349
17.665 0.00389602
17.87 0.00333143
18.075 0.0224713
18.28 0.0146475
18.485 0.0242457
18.69 0.0269167
18.895 0.0208326
19.1 0.0178796
19.305 0.0158398
19.51 0.0212605
19.715 0.00129492
19.92 0.015109
20.125 0.00147506
20.33 0.00249075
20.535 0.0294146
20.74 0.00763422
20.945 0.00406986
21.15 0.000989356
21.355 0.0190801
21.56 -0.0126419
21.765 0.0117008
21.97 0.00385165
22.175 0.00314307
22.38 -0.0060629
22.585 -0.0124095
22.79 0.0354388
22.995 0.0347492
23.2 0.00314926
23.405 0.0117475
23.61 0.013656
23.815 0.00591049
24.02 0.0218941
24.225 -0.000388953
24.43 -0.0030989
24.635 0.000661591
24.84 0.0135119
25.045 -0.00222204
25.25 0.0209557
25.455 0.0183303
25.66 0.0303512
25.865 0.0649399
26.07 0.121219
26.275 0.278799
26.48 0.17597
26.685 0.0411608
26.89 0.0223534
27.095 0.0324401
27.3 0.0123569
27.505 0.0195554
27.71 0.00808089
27.915 0.0160947
28.12 0.00532393
28.325 0.00682231
28.53 0.0166455
28.735 0.0271356
28.94 0.0818902
29.145 0.159469
29.35 0.263145
29.555 0.874195
29.76 0.188733
29.965 0.0195656
30.17 0.018713
30.375 0.0371067
30.58 0.123072
30.785 0.0072899
30.99 0.00624052
31.195 0.00476997
31.4 0.0090194
31.605 -0.0133753
31.81 0.00226608
32.015 -0.0112444
32.22 0.00104956
32.425 -0.00484178
32.63 6.94287e-05
32.835 -0.00047947
33.04 0.000912226
33.245 0.00545273
33.45 0.00334477
33.655 -0.0014331
33.86 -0.00498844
34.065 -0.010376
34.27 -0.000133227
34.475 0.0231183
34.68 0.240941
34.885 0.281141
35.09 0.11124
35.295 0.112553
35.5 0.0298163
35.705 0.00103685
35.91 -0.00585034
36.115 -0.000434026
36.32 -0.00209281
36.525 0.000230718
36.73 0.00484947
36.935 0.0246202
37.14 0.0979713
37.345 0.361043
37.55 0.230293
37.755 0.038121
37.96 -0.0022225
38.165 -0.00137208
38.37 0.00549171
38.575 0.000768709
38.78 -0.00755916
38.985 0.00295238
39.19 0.0129211
39.395 0.0265744
39.6 0.0420538
39.805 0.0471079
40.01 0.14009
40.215 0.79952
40.42 0.0660503
40.625 0.0081577
40.83 0.00960029
41.035 -0.00797483
41.24 -0.00287805
41.445 0.0185134
41.65 0.00199236
41.855 -0.0113656
42.06 -0.00390297
42.265 -0.000854493
42.47 0.00408283
42.675 0.00497924
42.88 0.0109478
43.085 0.00302776
43.29 0.00582687
43.495 0.00245926
43.7 0.00769171
43.905 0.0173982
44.11 0.0442297
44.315 0.0637346
44.52 0.004162
44.725 0.00289272
44.93 0.00487181
45.135 0.00282068
45.34 0.000473327
45.545 0.0127525
45.75 0.0103797
45.955 -0.000759584
46.16 0.0144485
46.365 0.0374436
46.57 0.16092
46.775 0.645003
46.98 0.0726298
47.185 0.0115641
47.39 0.0192925
47.595 0.0166978
47.8 0.0493093
48.005 0.0896487
48.21 0.0751097
48.415 0.112299
48.62 0.147062
48.825 0.538624
49.03 0.791873
49.235 0.0559628
49.44 0.00824345
49.645 0.00621961
49.85 -0.00376809
50.055 0.000881614
50.26 0.00445439
50.465 0.0084531
50.67 0.0208244
50.875 0.0107697
51.08 0.00169579
51.285 0.00305806
51.49 0.00437599
51.695 0.000728849
51.9 -0.000811628
52.105 0.00011619
52.31 -0.00476186
52.515 -0.00229026
52.72 -0.00139538
52.925 0.00160954
53.13 0.00711834
53.335 0.00580357
53.54 0.0165654
53.745 0.0240267
53.95 0.00334247
54.155 -0.00433708
54.36 -0.00570101
54.565 0.00103075
54.77 0.0199335
54.975 0.0569037
55.18 0.0336968
55.385 0.00871766
55.59 0.0117149
55.795 0.0344046
56 0.0444426
56.205 0.0927856
56.41 0.0539766
56.615 0.0172335
56.82 0.0342669
57.025 0.031839
57.23 -0.00266203
57.435 0.00362443
57.64 0.00755883
57.845 -0.00317622
58.05 -0.000841753
58.255 0.00819371
58.46 0.0231508
58.665 0.0147585
58.87 -0.00206169
59.075 0.00417307
59.28 0.00126256
59.485 0.0117476
59.69 0.0207397
59.895 0.038969
60.1 0.0127177
60.305 -0.00266503
60.51 -0.00873394
60.715 0.000545467
60.92 0.00357298
61.125 0.0210233
61.33 0.0265578
61.535 0.012616
61.74 0.000341973
61.945 -0.00496094
62.15 0.000515448
62.355 -0.000728769
62.56 0.00106398
62.765 0.00269243
62.97 -0.00444561
63.175 0.00877909
63.38 0.0111757
63.585 0.0258198
63.79 0.0124993
63.995 -0.000694512
64.2 -0.000108665
64.405 0.00774978
64.61 0.00175228
64.815 -0.000936004
65.02 0.0181253
65.225 0.0499491
65.43 0.11293
65.635 0.0637666
65.84 0.0116717
66.045 0.0105626
66.25 0.0181004
66.455 0.0089511
66.66 0.00163859
66.865 -0.00134342
67.07 0.00117951
67.275 0.00456972
67.48 -0.00270547
67.685 0.00139492
67.89 -0.0063551
68.095 0.00214281
68.3 0.000349071
68.505 0.00444459
68.71 0.0107798
68.915 0.0228353
69.12 0.02644
69.325 0.0515605
69.53 0.0649398
69.735 0.0659409
69.94 0.0292811
70.145 0.011939
70.35 -0.000648572
70.555 -0.000767345
70.76 0.00655993
70.965 0.00208404
71.17 0.00510994
71.375 0.00760748
71.58 0.010494
71.785 0.0123314
71.99 0.0173347
72.195 0.0130037
72.4 -0.00431129
72.605 -0.000998048
72.81 0.00877199
73.015 0.0278545
73.22 0.0307154
73.425 0.0399351
73.63 0.0420884
73.835 0.0234513
74.04 0.023402
74.245 0.0302511
74.45 0.0358053
74.655 0.0392297
74.86 0.119236
75.065 0.264631
75.27 0.116868
75.475 0.0476243
75.68 0.0394174
75.885 0.0164377
76.04 -0.00647757

File: 2018-12-11T15_55_59.662061+00_00_LBL.xy
'Id: "" Comment: "Integrate frame perovskite0_02_002.gfrmwith cursor Wedge Cursor #1" Operator: "UC Berkeley" Anode: "Co" Scantype: "TwoTheta" TimePerStep: "500"
14.09 -0.0235468
14.295 0.0262602
14.5 0.00999835
14.705 0.0214134
14.91 0.0162871
15.115 0.0413906
15.32 -0.0126136
15.525 0.0464638
15.73 0.0509147
15.935 -0.0126186
16.14 0.0192823
16.345 0.0121917
16.55 0.0495632
16.755 0.0345687
16.96 0.0016741
17.165 0.00200747
17.37 0.0465982
17.575 0.00316848
17.78 0.032825
17.985 0.0373576
18.19 0.0133858
18.395 0.0274252
18.6 0.0242812
18.805 0.0289723
19.01 0.0298278
19.215 0.0327835
19.42 0.0627483
19.625 0.0408681
19.83 0.0453513
20.035 0.00276009
20.24 0.0445178
20.445 0.0488865
20.65 0.0431087
20.855 0.062945
21.06 0.0864674
21.265 0.0683649
21.47 0.0797229
21.675 0.072442
21.88 0.0636462
22.085 0.0742147
22.29 0.101049
22.495 0.131307
22.7 0.114133
22.905 0.128008
23.11 0.105826
23.315 0.13736
23.52 0.145215
23.725 0.140245
23.93 0.137899
24.135 0.155977
24.34 0.165983
24.545 0.148128
24.75 0.174103
24.955 0.193233
25.16 0.215223
25.365 0.2872
25.57 0.37645
25.775 0.671998
25.98 1.60146
26.185 3.09691
26.39 1.44849
26.595 0.43353
26.8 0.196652
27.005 0.152129
27.21 0.11191
27.415 0.27747
27.62 0.0715455
27.825 0.0377984
28.03 0.026131
28.235 0.0214293
28.44 0.0263943
28.645 0.0314678
28.85 0.0153214
29.055 0.0143049
29.26 0.00615571
29.465 0.0263511
29.67 0.0182094
29.875 0.0591509
30.08 0.0361858
30.285 0.00873703
30.49 0.00627481
30.695 0.0139702
30.9 0.0217149
31.105 0.048059
31.31 0.0147224
31.515 0.031411
31.72 0.0189118
31.925 0.0281221
32.13 -0.00321605
32.335 0.0493136
32.54 0.0117819
32.745 0.00321398
32.95 -0.000209987
33.155 0.0197934
33.36 0.010202
33.565 0.0492178
33.77 0.0186589
33.975 0.0180025
34.18 0.0121819
34.385 0.00969352
34.59 -0.00552635
34.795 0.00283177
35 0.0013299
35.205 0.00840587
35.41 0.0100009
35.615 0.0135532
35.82 0.0137764
36.025 0.00492177
36.23 -0.00842324
36.435 0.0343278
36.64 0.0242508
36.845 0.0663603
37.05 0.0221252
37.255 -0.0037065
37.46 0.0083323
37.665 0.0456879
37.87 0.0476454
38.075 0.0170518
38.28 0.0389145
38.485 0.0501197
38.69 0.0525047
38.895 0.114274
39.1 0.247247
39.305 0.41443
39.51 0.558404
39.715 0.501113
39.92 0.353421
40.125 0.163511
40.33 0.05921
40.535 0.0419393
40.74 0.033847
40.945 0.0231646
41.15 0.00523837
41.355 0.0196291
41.56 0.0101039
41.765 0.0145442
41.97 0.0144052
42.175 0.00856666
42.38 0.00519738
42.585 0.00567563
42.79 -0.00692231
42.995 -0.0052541
43.2 0.020736
43.405 0.00423182
43.61 0.00559336
43.815 0.00454319
44.02 0.0207295
44.225 0.0195222
44.43 0.0157933
44.635 0.0233784
44.84 0.0321509
45.045 0.0169882
45.25 0.0188026
45.455 0.0195839
45.66 0.024967
45.865 0.0315158
46.07 0.0413199
46.275 0.0481582
46.48 0.0184092
46.685 0.0175478
46.89 0.00777942
47.095 0.00176916
47.3 -0.00103254
47.505 0.0100005
47.71 -0.00402195
47.915 0.0011931
48.12 -0.00337938
48.325 -0.00194806
48.53 -0.00542791
48.735 0.0144315
48.94 0.007006
49.145 0.00884417
49.35 0.0096095
49.555 0.00280057
49.76 -0.00928647
49.965 0.0219441
50.17 0.00491009
50.375 0.017348
50.58 0.0241779
50.785 0.0242242
50.99 0.0212858
51.195 -0.00872002
51.4 -0.00695709
51.605 0.00982023
51.81 -0.0067227
52.015 0.00400269
52.22 0.0137257
52.425 0.0203362
52.63 0.017591
52.835 0.014213
53.04 0.00267015
53.245 0.00618738
53.45 0.0128425
53.655 0.00117448
53.86 0.0119976
54.065 0.0169748
54.27 0.00894169
54.475 0.0167442
54.68 0.0161619
54.885 0.035454
55.09 0.0861617
55.295 0.122567
55.5 0.165119
55.705 0.162664
55.91 0.118053
56.115 0.0556349
56.32 0.0367497
56.525 0.0279027
56.73 0.0345506
56.935 0.0151496
57.14 0.0112486
57.345 0.00864184
57.55 0.00448848
57.755 -0.00173228
57.96 5.50044e-05
58.165 0.000238873
58.37 0.00231344
58.575 0.0135107
58.78 -0.00919764
58.985 -0.00880859
59.19 0.00518338
59.395 0.01494
59.6 0.0216158
59.805 0.0185611
60.01 0.0145158
60.215 0.00554449
60.42 -0.0020046
60.625 0.00288298
60.83 0.0204067
61.035 0.0326181
61.24 0.0312703
61.445 0.0285784
61.65 0.0316674
61.855 0.0532682
62.06 0.0396941
62.265 0.0615558
62.47 0.0943837
62.675 0.0770287
62.88 0.0597519
63.085 0.0382718
63.29 0.0237252
63.495 0.00714699
63.7 0.0117426
63.905 0.0126653
64.11 0.0082958
64.315 0.0107412
64.52 0.00789808
64.725 0.00725941
64.93 0.0034049
65.135 -0.000585664
65.34 0.00254869
65.545 0.0104676
65.75 0.0046539
65.955 0.00658268
66.16 0.0192162
66.365 0.00332006
66.57 0.00551055
66.775 0.0119563
66.98 -0.00117526
67.185 8.54025e-05
67.39 0.00870327
67.595 -0.00156881
67.8 0.0129838
68.005 0.00386844
68.21 -0.00427671
68.415 0.0154616
68.62 0.0132336
68.825 0.0316713
69.03 0.0335971
69.235 0.013884
69.44 0.0261902
69.645 0.0168187
69.85 -0.00521527
70.055 0.0059759
70.26 0.00420663
70.465 0.0146671
70.67 0.0229292
70.875 0.10726
71.08 0.189597
71.285 0.0385527
71.49 0.0189147
71.695 0.0171539
71.9 0.0273038
72.105 0.0309107
72.31 0.00944991
72.515 -0.00692287
72.72 -0.00555279
72.925 -0.00586756
73.13 0.00390978
73.335 0.0247371
73.54 0.0118003
73.745 0.0129135
73.95 0.0208929
74.155 0.00825681
74.36 0.0155954
74.565 0.00132193
74.77 -0.00761742
74.975 0.012657
75.18 0.0230521
75.305 -0.0108593

File: 2018-12-11T18_27_36.901478+00_00_LBL.xy
'Id: "" Comment: "Integrate frame iprodim_01_001.gfrmwith cursor Wedge Cursor #1" Operator: "UC Berkeley" Anode: "Co" Scantype: "TwoTheta" TimePerStep: "300"
13.995 -0.0374779
14.18 0.0499588
14.365 0.0289588
14.55 0.0338198
14.735 0.127598
14.92 0.0391501
15.105 0.012365
15.29 0.0686491
15.475 0.0482915
15.66 0.0723452
15.845 0.0692382
16.03 0.0523477
16.215 0.092801
16.4 0.0731799
16.585 0.0540784
16.77 0.104163
16.955 0.0912256
17.14 0.0884022
17.325 0.016613
17.51 0.0593175
17.695 0.0510482
17.88 0.0450612
18.065 0.0394513
18.25 0.0908783
18.435 0.0962754
18.62 0.096587
18.805 0.0554138
18.99 0.0666787
19.175 0.109197
19.36 0.0597675
19.545 0.0391087
19.73 0.0765405
19.915 0.0931903
20.1 0.110581
20.285 0.0739587
20.47 0.06411
20.655 0.0569859
20.84 0.0138238
21.025 0.00624529
21.21 0.0947474
21.395 0.0496365
21.58 0.0334201
21.765 0.110816
21.95 0.0360909
22.135 0.0206505
22.32 0.0471651
22.505 0.0432638
22.69 0.0421965
22.875 0.020649
23.06 0.010124
23.245 0.0408642
23.43 0.0594372
23.615 0.038054
23.8 -0.00178818
23.985 0.0311051
24.17 0.0387642
24.355 0.0574992
24.54 0.0284501
24.725 -0.00156071
24.91 0.0153265
25.095 0.0328994
25.28 0.0508893
25.465 0.0366013
25.65 0.0102179
25.835 0.0222162
26.02 0.038477
26.205 0.01365
26.39 -0.00511013
26.575 0.0280359
26.76 0.0301674
26.945 0.0169549
27.13 -0.0128795
27.315 0.0278325
27.5 0.0936006
27.685 0.0571129
27.87 0.0205812
28.055 0.032077
28.24 0.0194208
28.425 0.0317645
28.61 0.0579423
28.795 0.0500117
28.98 0.031291
29.165 0.0884908
29.35 0.331152
29.535 0.134397
29.72 0.0710223
29.905 0.0144684
30.09 0.0418889
30.275 0.0512929
30.46 0.0241271
30.645 0.0107564
30.83 0.0407938
31.015 0.019291
31.2 0.0308412
31.385 0.000480689
31.57 0.0259185
31.755 0.00114904
31.94 0.00264038
32.125 -0.0128105
32.31 0.0236782
32.495 0.0399754
32.68 0.0134459
32.865 0.0153102
33.05 0.0138621
33.235 -0.00907344
33.42 -0.0105528
33.605 0.0615133
33.79 0.477381
33.975 0.487025
34.16 0.0753857
34.345 0.0204322
34.53 0.00470081
34.715 -0.00156208
34.9 0.031285
35.085 0.0739427
35.27 0.0399544
35.455 0.00540576
35.64 0.0753633
35.825 0.0519065
36.01 0.0548071
36.195 0.0189415
36.38 0.011064
36.565 0.0121728
36.75 0.0147061
36.935 0.0437103
37.12 0.085313
37.305 0.0751002
37.49 0.0197975
37.675 0.0205001
37.86 0.0177991
38.045 0.00865771
38.23 -0.0178229
38.415 0.00180177
38.6 0.012365
38.785 0.0335219
38.97 0.00990766
39.155 -0.000825134
39.34 -0.00655596
39.525 0.0025899
39.71 0.0134652
39.895 0.0161762
40.08 0.0142172
40.265 -0.0109935
40.45 -0.0152915
40.635 0.00773833
40.82 -0.00454833
41.005 -0.00885094
41.19 0.00532286
41.375 -0.00474881
41.56 0.0057779
41.745 0.00739725
41.93 0.0287694
42.115 0.0281624
42.3 0.00433811
42.485 -0.00721381
42.67 0.0194387
42.855 -0.000728097
43.04 0.00667495
43.225 0.00439669
43.41 0.0450689
43.595 0.0484885
43.78 0.130312
43.965 0.101294
44.15 0.0441596
44.335 0.0462722
44.52 0.10234
44.705 0.12395
44.89 0.0453504
45.075 0.0328847
45.26 0.0212202
45.445 0.012357
45.63 0.0107882
45.815 0.0300475
46 -0.011308
46.185 0.014033
46.37 0.0157746
46.555 0.0161244
46.74 -0.00422398
46.925 0.0259421
47.11 0.0201636
47.295 0.0544562
47.48 0.0541283
47.665 0.133412
47.85 0.175816
48.035 0.0606505
48.22 0.0285502
48.405 0.0201975
48.59 0.0171497
48.775 0.0212064
48.96 0.0213374
49.145 0.018405
49.33 0.0371964
49.515 0.0290673
49.7 0.0264801
49.885 0.00923
50.07 0.00413021
50.255 0.00445677
50.44 -0.0164692
50.625 -0.00633201
50.81 -0.0171145
50.995 -0.0036559
51.18 -0.00590855
51.365 0.010987
51.55 0.00849083
51.735 -0.00845954
51.92 -0.00523837
52.105 -0.0121717
52.29 -0.00716993
52.475 -0.00437434
52.66 0.00754125
52.845 0.0175454
53.03 0.0182608
53.215 -0.00105372
53.4 -0.0196363
53.585 -0.00824168
53.77 0.0080445
53.955 0.00334256
54.14 0.0181746
54.325 0.0136408
54.51 0.0325197
54.695 0.0236899
54.88 0.0425618
55.065 0.0125445
55.25 0.0455719
55.435 0.0270059
55.62 0.0280571
55.805 0.00720568
55.99 0.0436924
56.175 0.0289045
56.36 0.0405588
56.545 0.0423638
56.73 0.0732489
56.915 0.122705
57.1 0.0275337
57.285 0.0271087
57.47 0.0205653
57.655 0.0202246
57.84 0.0239643
58.025 0.0245212
58.21 0.0208531
58.395 0.0027849
58.58 0.0164326
58.765 0.0113401
58.95 0.0271298
59.135 0.0188679
59.32 0.0225489
59.505 0.00942234
59.69 0.00556277
59.875 0.004945
60.06 0.00506117
60.245 -0.0173035
60.43 0.0159352
60.615 0.0148804
60.8 0.0211462
60.985 0.0233044
61.17 0.039441
61.355 0.0251401
61.54 0.00309851
61.725 0.0163917
61.91 0.0097257
62.095 -0.00587687
62.28 -0.000340291
62.465 0.00451659
62.65 0.00211773
62.835 0.00123388
63.02 0.00138042
63.205 0.0222759
63.39 -0.00245482
63.575 0.0148885
63.76 0.00430902
63.945 0.00504614
64.13 -0.00385621
64.315 0.010027
64.5 -0.0088308
64.685 0.00511042
64.87 0.000541225
65.055 -0.00120724
65.24 0.00149812
65.425 0.00337931
65.61 0.0535389
65.795 0.0514397
65.98 -0.00194433
66.165 0.00244311
66.35 0.00175973
66.535 0.00285776
66.72 -0.00430582
66.905 -0.0107565
67.09 0.00968999
67.275 -0.0117024
67.46 0.00279663
67.645 0.00619372
67.83 0.0529693
68.015 0.0789965
68.2 0.0343785
68.385 0.0113121
68.57 0.0107851
68.725 -0.0191496

File: 2019-02-21T16_43_20.274786+00_00_LBL.xy
'Id: "" Comment: "Integrate frame ibutyl0_00_003.gfrmwith cursor Wedge Cursor #1" Operator: "UC Berkeley" Anode: "Co" Scantype: "TwoTheta" TimePerStep: "600"
14.08 -0.0261277
14.265 0.0385441
14.45 0.0588122
14.635 0.0560573
14.82 0.0521743
15.005 -0.00141849
15.19 0.0619009
15.375 0.0422857
15.56 0.552727
15.745 0.944969
15.93 0.123229
16.115 0.0490776
16.3 0.0146573
16.485 0.0539128
16.67 0.0558429
16.855 0.106131
17.04 0.039402
17.225 0.00212994
17.41 0.0268037
17.595 0.019882
17.78 0.0216386
17.965 -0.013614
18.15 0.00401343
18.335 0.0232332
18.52 0.013453
18.705 0.0266027
18.89 0.0084261
19.075 0.0437513
19.26 -0.00171819
19.445 0.0400558
19.63 0.0520922
19.815 0.0594507
20 0.0468148
20.185 0.0639716
20.37 0.0256617
20.555 0.0171025
20.74 -0.00333651
20.925 -0.000788843
21.11 0.0126702
21.295 0.0189335
21.48 0.0049284
21.665 0.0157828
21.85 0.0156129
22.035 0.0337129
22.22 0.0239974
22.405 0.00691854
22.59 0.0510055
22.775 0.105769
22.96 0.0942814
23.145 0.180585
23.33 0.781842
23.515 14.8997
23.7 5.3877
23.885 0.24249
24.07 0.124583
24.255 0.0636217
24.44 0.0603341
24.625 0.0412155
24.81 0.0187807
24.995 0.0291933
25.18 0.0109694
25.365 0.023932
25.55 0.0121637
25.735 0.00333822
25.92 0.0110677
26.105 0.0483788
26.29 0.226778
26.475 0.00419529
26.66 0.0118835
26.845 0.0297625
27.03 0.0145973
27.215 0.0195779
27.4 0.0207279
27.585 0.0203175
27.77 0.0443166
27.955 0.0228972
28.14 -0.0137152
28.325 0.0878456
28.51 0.0723765
28.695 0.027687
28.88 0.0155645
29.065 0.00730064
29.25 0.0162979
29.435 0.010581
29.62 0.0267438
29.805 0.0389195
29.99 0.0466241
30.175 0.0554796
30.36 0.0774151
30.545 0.122228
30.73 0.184005
30.915 0.226744
31.1 0.37897
31.285 0.827953
31.47 8.29814
31.655 36.8817
31.84 2.02496
32.025 0.570915
32.21 1.07974
32.395 0.469408
32.58 0.191287
32.765 0.127469
32.95 0.108652
33.135 0.142303
33.32 0.0449652
33.505 0.0490598
33.69 0.149959
33.875 0.0561278
34.06 0.0922377
34.245 0.0292113
34.43 0.0071218
34.615 0.00845569
34.8 0.00381615
34.985 -0.00536001
35.17 -0.00931887
35.355 -0.00573012
35.54 0.00436964
35.725 0.00326508
35.91 -0.0069392
36.095 -0.0146113
36.28 -0.0115123
36.465 -0.0202708
36.65 -0.017901
36.835 0.013807
37.02 0.0749457
37.205 0.0194145
37.39 0.0103931
37.575 0.0199666
37.76 0.0732485
37.945 0.0370628
38.13 0.0489722
38.315 0.0400793
38.5 0.0278013
38.685 0.0630058
38.87 0.0884191
39.055 0.12483
39.24 0.278718
39.425 1.23967
39.61 2.66127
39.795 18.2366
39.98 7.07609
40.165 0.433896
40.35 0.163198
40.535 0.112933
40.72 0.0718194
40.905 0.066788
41.09 0.0943344
41.275 0.0308447
41.46 0.0341633
41.645 0.0180668
41.83 0.0150904
42.015 -0.00375502
42.2 0.00832672
42.385 0.0182351
42.57 0.00497913
42.755 0.00658076
42.94 0.00225945
43.125 0.0104056
43.31 0.02654
43.495 0.00644264
43.68 0.00786075
43.865 0.0093806
44.05 0.012257
44.235 0.0166263
44.42 0.0297749
44.605 0.0349529
44.79 0.0230674
44.975 0.00579697
45.16 0.0136846
45.345 -0.00506351
45.53 -0.00525294
45.715 0.0059848
45.9 0.000829105
46.085 0.00847588
46.27 0.0478306
46.455 0.161518
46.64 0.142627
46.825 0.031904
47.01 0.024316
47.195 0.0416535
47.38 0.0404746
47.565 0.0170739
47.75 -0.00316039
47.935 -0.00469452
48.12 0.101827
48.305 0.205611
48.49 0.0352762
48.675 0.0175237
48.86 0.00760829
49.045 -0.00917529
49.23 2.17769e-05
49.415 -0.0092525
49.6 0.0282674
49.785 0.0771
49.97 0.0326238
50.155 0.0123884
50.34 -0.00307385
50.525 0.00338604
50.71 -0.0111082
50.895 0.00486642
51.08 -0.0123322
51.265 -0.00648711
51.45 0.00507801
51.635 0.0210416
51.82 0.0287024
52.005 0.042167
52.19 0.0636222
52.375 0.0336988
52.56 0.0990593
52.745 0.203954
52.93 0.117106
53.115 0.0206064
53.3 0.00856078
53.485 -0.0165372
53.67 0.00278431
53.855 0.0179501
54.04 0.0653536
54.225 0.0612024
54.41 0.0356095
54.595 0.0106514
54.78 0.00076574
54.965 -0.0106867
55.15 -0.0125656
55.335 0.00896541
55.52 0.0345862
55.705 0.0310551
55.89 0.00336359
56.075 -0.00921822
56.26 -0.00460066
56.445 -0.00742588
56.63 0.00682311
56.815 0.074053
57 0.220822
57.185 0.0941593
57.37 0.00331602
57.555 0.00510591
57.74 0.00456624
57.925 -0.00356392
58.11 0.0408028
58.295 0.108616
58.48 0.0804391
58.665 0.0331771
58.85 0.00997633
59.035 0.0124704
59.22 0.0568801
59.405 0.0698357
59.59 0.0445307
59.775 0.0293669
59.96 0.0101019
60.145 -0.0019751
60.33 -0.00621616
60.515 -0.000362197
60.7 0.00231638
60.885 -0.0125579
61.07 0.00693633
61.255 0.0155774
61.44 0.0160753
61.625 0.0192369
61.81 0.0159363
61.995 0.00938683
62.18 0.00490476
62.365 -0.00443519
62.55 0.0309454
62.735 0.0119708
62.92 0.00866041
63.105 0.00728553
63.29 0.0163611
63.475 0.0204937
63.66 0.0857057
63.845 0.240325
64.03 0.49302
64.215 0.51054
64.4 0.145968
64.585 0.0186036
64.77 0.00280998
64.955 -0.0042895
65.14 0.00247707
65.325 0.0197446
65.51 0.00793397
65.695 0.0347169
65.88 0.156294
66.065 0.228946
66.25 0.148735
66.435 0.0508688
66.62 -0.000152951
66.805 -0.0124839
66.99 -0.0108321
67.175 0.0224054
67.36 0.0918675
67.545 0.108396
67.73 0.0988895
67.915 0.0605746
68.1 0.0113439
68.285 -0.000551014
68.38 -0.0163576