Folder: rapid/data/xrd/xy (part 20)

File: n-Hexylammonium_Iodide.lbl_rescaled.xy
# Processed xy data with Haverford two-theta converted to LBL scale
two_theta,intensity
5.81234,4.0
6.06814,10.0
6.32395,25.0
6.57977,13.0
6.8356,7.0
7.09144,3.0
7.34728,5.0
7.60314,2.0
7.85901,3.0
8.11488,3.0
8.37077,1.0
8.62667,3.0
8.88257,0.0
9.1385,4.0
9.39443,2.0
9.65037,3.0
9.90633,5.0
10.1623,7.0
10.4183,3.0
10.6743,3.0
10.9303,5.0
11.1863,0.0
11.4424,1.0
11.6984,3.0
11.9545,1.0
12.2106,2.0
12.4667,3.0
12.7228,3.0
12.9789,0.0
13.2351,0.0
13.4912,2.0
13.7474,3.0
14.0036,5.0
14.2599,0.0
14.5161,6.0
14.7724,4.0
15.0287,2.0
15.285,0.0
15.5413,2.0
15.7976,2.0
16.054,5.0
16.3104,5.0
16.5668,3.0
16.8232,1.0
17.0797,2.0
17.3361,4.0
17.5926,3.0
17.8491,4.0
18.1057,7.0
18.3623,5.0
18.6188,2.0
18.8755,6.0
19.1321,10.0
19.3888,33.0
19.6455,16.0
19.9022,13.0
20.1589,5.0
20.4157,2.0
20.6725,6.0
20.9294,8.0
21.1862,44.0
21.4431,18.0
21.7,30.0
21.957,18.0
22.2139,13.0
22.4709,16.0
22.728,14.0
22.9851,10.0
23.2422,9.0
23.4993,10.0
23.7564,8.0
24.0136,11.0
24.2709,8.0
24.5281,7.0
24.7854,15.0
25.0428,12.0
25.3001,28.0
25.5575,30.0
25.815,84.0
26.0724,180.0
26.3299,48.0
26.5875,78.0
26.8451,44.0
27.1027,40.0
27.3603,20.0
27.618,20.0
27.8758,29.0
28.1335,27.0
28.3913,45.0
28.6492,30.0
28.9071,32.0
29.165,28.0
29.423,31.0
29.681,27.0
29.9391,15.0
30.1972,11.0
30.4553,6.0
30.7135,9.0
30.9717,8.0
31.23,6.0
31.4883,9.0
31.7467,22.0
32.0051,62.0
32.2635,36.0
32.522,44.0
32.7806,41.0
33.0392,13.0
33.2978,15.0
33.5565,12.0
33.8153,15.0
34.0741,12.0
34.3329,4.0
34.5918,11.0
34.8507,13.0
35.1097,11.0
35.3688,15.0
35.6279,14.0
35.887,13.0
36.1462,3.0
36.4055,10.0
36.6648,12.0
36.9241,10.0
37.1836,12.0
37.443,22.0
37.7026,29.0
37.9621,19.0
38.2218,15.0
38.4815,9.0
38.7412,10.0
39.0011,22.0
39.2609,20.0
39.5209,16.0
39.7809,21.0
40.0409,18.0
40.3011,24.0
40.5612,19.0
40.8215,12.0
41.0818,16.0
41.3421,14.0
41.6026,9.0
41.8631,15.0
42.1236,9.0
42.3843,10.0
42.645,11.0
42.9057,21.0
43.1665,30.0
43.4274,28.0
43.6884,19.0
43.9494,15.0
44.2105,12.0
44.4717,8.0
44.733,10.0
44.9943,11.0
45.2557,13.0
45.5171,12.0
45.7786,21.0
46.0403,12.0
46.3019,21.0
46.5637,17.0
46.8255,16.0
47.0874,14.0
47.3494,21.0
47.6115,24.0
47.8736,34.0
48.1358,22.0
48.3981,15.0
48.6605,22.0
48.923,18.0
49.1855,14.0
49.4481,18.0
49.7108,10.0
49.9736,12.0
50.2365,21.0
50.4994,14.0
50.7625,15.0
51.0256,9.0
51.2888,13.0
51.5521,9.0
51.8155,12.0
52.079,15.0
52.3426,16.0
52.6062,14.0
52.87,13.0
53.1338,15.0
53.3978,16.0
53.6618,11.0
53.9259,9.0
54.1901,7.0
54.4545,11.0
54.7189,13.0
54.9834,10.0
55.248,7.0
55.5127,9.0
55.7775,8.0
56.0424,12.0
56.3074,8.0
56.5725,11.0
56.8377,7.0
57.103,11.0
57.3685,14.0
57.634,13.0
57.8996,14.0
58.1654,14.0
58.4312,9.0
58.6972,16.0
58.9632,14.0
59.2294,8.0
59.4957,13.0
59.7621,9.0
60.0286,9.0
60.2952,13.0
60.562,9.0
60.8288,17.0
61.0958,11.0
61.3629,6.0
61.6301,11.0
61.8974,10.0
62.1649,11.0
62.4325,11.0
62.7002,14.0
62.968,11.0
63.2359,16.0
63.504,8.0
63.7722,13.0
64.0405,13.0
64.309,14.0
64.5776,15.0
64.8463,17.0
65.1151,9.0
65.3841,20.0
65.6532,18.0
65.9225,20.0
66.1919,9.0
66.4614,7.0
66.7311,12.0
67.0009,10.0
67.2708,14.0
67.5409,14.0
67.8112,16.0
68.0815,15.0
68.3521,13.0
68.6227,12.0
68.8935,9.0
69.1645,12.0
69.4356,13.0
69.7069,11.0
69.9783,13.0
70.2499,9.0
70.5216,7.0
70.7935,9.0
71.0656,10.0
71.3378,18.0
71.6102,10.0
71.8827,15.0
72.1554,8.0
72.4283,11.0
72.7013,8.0
72.9745,23.0
73.2479,11.0
73.5214,8.0
73.7951,13.0
74.069,14.0
74.3431,8.0
74.6173,6.0
74.8917,11.0
75.1663,15.0
75.4411,5.0
75.7161,13.0
75.9912,7.0
76.2665,4.0
76.5421,8.0
76.8178,7.0
77.0937,12.0
77.3698,11.0
77.6461,10.0
77.9226,12.0
78.1992,16.0
78.4761,14.0
78.7532,6.0
79.0305,12.0
79.308,12.0
79.5857,7.0
79.8636,11.0
80.1417,5.0
80.4201,12.0
80.6986,3.0
80.9774,12.0
81.2564,9.0
81.5356,7.0
81.815,6.0
82.0947,8.0
82.3746,9.0
82.6547,14.0
82.935,7.0
83.2156,7.0
83.4964,8.0
83.6241,8.0

File: Pbi_DMSO.lbl_rescaled.xy
# Processed xy data with Haverford two-theta converted to LBL scale
two_theta,intensity
5.81234,5.0
6.06814,9.0
6.32395,9.0
6.57977,5.0
6.8356,4.0
7.09144,4.0
7.34728,5.0
7.60314,5.0
7.85901,6.0
8.11488,4.0
8.37077,6.0
8.62667,4.0
8.88257,6.0
9.1385,5.0
9.39443,2.0
9.65037,1.0
9.90633,7.0
10.1623,6.0
10.4183,6.0
10.6743,3.0
10.9303,5.0
11.1863,5.0
11.4424,37.0
11.6984,204.0
11.9545,1035.0
12.2106,18.0
12.4667,5.0
12.7228,3.0
12.9789,2.0
13.2351,2.0
13.4912,5.0
13.7474,4.0
14.0036,2.0
14.2599,13.0
14.5161,24.0
14.7724,265.0
15.0287,18.0
15.285,4.0
15.5413,5.0
15.7976,7.0
16.054,0.0
16.3104,10.0
16.5668,6.0
16.8232,6.0
17.0797,1.0
17.3361,1.0
17.5926,5.0
17.8491,2.0
18.1057,1.0
18.3623,3.0
18.6188,11.0
18.8755,5.0
19.1321,1.0
19.3888,3.0
19.6455,5.0
19.9022,1.0
20.1589,4.0
20.4157,2.0
20.6725,7.0
20.9294,7.0
21.1862,4.0
21.4431,4.0
21.7,3.0
21.957,6.0
22.2139,7.0
22.4709,5.0
22.728,6.0
22.9851,9.0
23.2422,6.0
23.4993,5.0
23.7564,18.0
24.0136,52.0
24.2709,115.0
24.5281,14.0
24.7854,5.0
25.0428,7.0
25.3001,6.0
25.5575,8.0
25.815,50.0
26.0724,6.0
26.3299,7.0
26.5875,5.0
26.8451,3.0
27.1027,3.0
27.3603,14.0
27.618,10.0
27.8758,4.0
28.1335,3.0
28.3913,3.0
28.6492,5.0
28.9071,3.0
29.165,7.0
29.423,25.0
29.681,115.0
29.9391,320.0
30.1972,18.0
30.4553,9.0
30.7135,7.0
30.9717,6.0
31.23,5.0
31.4883,11.0
31.7467,7.0
32.0051,5.0
32.2635,5.0
32.522,4.0
32.7806,6.0
33.0392,11.0
33.2978,151.0
33.5565,22.0
33.8153,8.0
34.0741,6.0
34.3329,7.0
34.5918,6.0
34.8507,3.0
35.1097,5.0
35.3688,7.0
35.6279,8.0
35.887,7.0
36.1462,6.0
36.4055,7.0
36.6648,5.0
36.9241,7.0
37.1836,47.0
37.443,29.0
37.7026,46.0
37.9621,5.0
38.2218,8.0
38.4815,8.0
38.7412,17.0
39.0011,40.0
39.2609,3.0
39.5209,5.0
39.7809,7.0
40.0409,9.0
40.3011,11.0
40.5612,10.0
40.8215,83.0
41.0818,4.0
41.3421,8.0
41.6026,6.0
41.8631,6.0
42.1236,6.0
42.3843,7.0
42.645,93.0
42.9057,11.0
43.1665,78.0
43.4274,16.0
43.6884,7.0
43.9494,13.0
44.2105,9.0
44.4717,6.0
44.733,8.0
44.9943,5.0
45.2557,13.0
45.5171,28.0
45.7786,68.0
46.0403,10.0
46.3019,8.0
46.5637,31.0
46.8255,24.0
47.0874,6.0
47.3494,8.0
47.6115,18.0
47.8736,10.0
48.1358,35.0
48.3981,174.0
48.6605,29.0
48.923,286.0
49.1855,55.0
49.4481,14.0
49.7108,6.0
49.9736,10.0
50.2365,7.0
50.4994,6.0
50.7625,7.0
51.0256,8.0
51.2888,5.0
51.5521,8.0
51.8155,8.0
52.079,5.0
52.3426,8.0
52.6062,8.0
52.87,9.0
53.1338,29.0
53.3978,52.0
53.6618,14.0
53.9259,9.0
54.1901,7.0
54.4545,12.0
54.7189,24.0
54.9834,8.0
55.248,13.0
55.5127,18.0
55.7775,11.0
56.0424,8.0
56.3074,12.0
56.5725,17.0
56.8377,7.0
57.103,7.0
57.3685,5.0
57.634,11.0
57.8996,9.0
58.1654,6.0
58.4312,6.0
58.6972,4.0
58.9632,7.0
59.2294,10.0
59.4957,8.0
59.7621,9.0
60.0286,11.0
60.2952,21.0
60.562,32.0
60.8288,27.0
61.0958,9.0
61.3629,8.0
61.6301,13.0
61.8974,20.0
62.1649,74.0
62.4325,244.0
62.7002,17.0
62.968,12.0
63.2359,13.0
63.504,9.0
63.7722,15.0
64.0405,9.0
64.309,8.0
64.5776,8.0
64.8463,6.0
65.1151,8.0
65.3841,5.0
65.6532,10.0
65.9225,6.0
66.1919,6.0
66.4614,3.0
66.7311,28.0
67.0009,14.0
67.2708,13.0
67.5409,10.0
67.8112,8.0
68.0815,5.0
68.3521,5.0
68.6227,6.0
68.8935,5.0
69.1645,7.0
69.4356,15.0
69.7069,10.0
69.9783,12.0
70.2499,13.0
70.5216,10.0
70.7935,7.0
71.0656,5.0
71.3378,9.0
71.6102,10.0
71.8827,11.0
72.1554,12.0
72.4283,8.0
72.7013,5.0
72.9745,9.0
73.2479,9.0
73.5214,21.0
73.7951,9.0
74.069,19.0
74.3431,18.0
74.6173,25.0
74.8917,15.0
75.1663,15.0
75.4411,10.0
75.7161,10.0
75.9912,24.0
76.2665,14.0
76.5421,10.0
76.8178,108.0
77.0937,16.0
77.3698,11.0
77.6461,9.0
77.9226,26.0
78.1992,18.0
78.4761,13.0
78.7532,5.0
79.0305,8.0
79.308,9.0
79.5857,6.0
79.8636,13.0
80.1417,11.0
80.4201,9.0
80.6986,12.0
80.9774,11.0
81.2564,20.0
81.5356,14.0
81.815,12.0
82.0947,7.0
82.3746,4.0
82.6547,9.0
82.935,9.0
83.2156,5.0
83.4964,9.0
83.6241,10.0

File: phenethylammonium_iodide.lbl_rescaled.xy
# Processed xy data with Haverford two-theta converted to LBL scale
two_theta,intensity
5.81234,6.0
6.06814,5.0
6.32395,7.0
6.57977,4.0
6.8356,2.0
7.09144,6.0
7.34728,5.0
7.60314,6.0
7.85901,7.0
8.11488,6.0
8.37077,3.0
8.62667,4.0
8.88257,3.0
9.1385,4.0
9.39443,7.0
9.65037,5.0
9.90633,3.0
10.1623,7.0
10.4183,14.0
10.6743,112.0
10.9303,27.0
11.1863,4.0
11.4424,3.0
11.6984,2.0
11.9545,4.0
12.2106,7.0
12.4667,3.0
12.7228,3.0
12.9789,3.0
13.2351,2.0
13.4912,9.0
13.7474,6.0
14.0036,6.0
14.2599,6.0
14.5161,6.0
14.7724,6.0
15.0287,5.0
15.285,8.0
15.5413,8.0
15.7976,4.0
16.054,3.0
16.3104,4.0
16.5668,5.0
16.8232,5.0
17.0797,5.0
17.3361,9.0
17.5926,3.0
17.8491,3.0
18.1057,6.0
18.3623,5.0
18.6188,8.0
18.8755,10.0
19.1321,4.0
19.3888,1.0
19.6455,5.0
19.9022,3.0
20.1589,5.0
20.4157,10.0
20.6725,4.0
20.9294,4.0
21.1862,21.0
21.4431,232.0
21.7,205.0
21.957,25.0
22.2139,11.0
22.4709,22.0
22.728,225.0
22.9851,49.0
23.2422,5.0
23.4993,6.0
23.7564,6.0
24.0136,4.0
24.2709,8.0
24.5281,13.0
24.7854,5.0
25.0428,5.0
25.3001,10.0
25.5575,27.0
25.815,130.0
26.0724,21.0
26.3299,5.0
26.5875,13.0
26.8451,51.0
27.1027,424.0
27.3603,21.0
27.618,10.0
27.8758,8.0
28.1335,21.0
28.3913,80.0
28.6492,64.0
28.9071,77.0
29.165,40.0
29.423,49.0
29.681,100.0
29.9391,17.0
30.1972,13.0
30.4553,17.0
30.7135,10.0
30.9717,7.0
31.23,6.0
31.4883,5.0
31.7467,8.0
32.0051,9.0
32.2635,15.0
32.522,182.0
32.7806,162.0
33.0392,10.0
33.2978,9.0
33.5565,12.0
33.8153,30.0
34.0741,16.0
34.3329,8.0
34.5918,7.0
34.8507,7.0
35.1097,4.0
35.3688,8.0
35.6279,7.0
35.887,22.0
36.1462,19.0
36.4055,3.0
36.6648,3.0
36.9241,6.0
37.1836,7.0
37.443,7.0
37.7026,8.0
37.9621,7.0
38.2218,123.0
38.4815,32.0
38.7412,13.0
39.0011,10.0
39.2609,13.0
39.5209,24.0
39.7809,48.0
40.0409,9.0
40.3011,9.0
40.5612,26.0
40.8215,28.0
41.0818,30.0
41.3421,12.0
41.6026,3.0
41.8631,8.0
42.1236,10.0
42.3843,12.0
42.645,10.0
42.9057,4.0
43.1665,7.0
43.4274,25.0
43.6884,41.0
43.9494,103.0
44.2105,32.0
44.4717,11.0
44.733,7.0
44.9943,4.0
45.2557,7.0
45.5171,7.0
45.7786,7.0
46.0403,10.0
46.3019,14.0
46.5637,16.0
46.8255,10.0
47.0874,16.0
47.3494,20.0
47.6115,5.0
47.8736,7.0
48.1358,15.0
48.3981,27.0
48.6605,30.0
48.923,52.0
49.1855,17.0
49.4481,22.0
49.7108,20.0
49.9736,16.0
50.2365,6.0
50.4994,6.0
50.7625,6.0
51.0256,16.0
51.2888,20.0
51.5521,4.0
51.8155,7.0
52.079,5.0
52.3426,11.0
52.6062,8.0
52.87,12.0
53.1338,33.0
53.3978,19.0
53.6618,6.0
53.9259,13.0
54.1901,31.0
54.4545,25.0
54.7189,6.0
54.9834,9.0
55.248,5.0
55.5127,7.0
55.7775,29.0
56.0424,17.0
56.3074,5.0
56.5725,6.0
56.8377,7.0
57.103,13.0
57.3685,7.0
57.634,6.0
57.8996,4.0
58.1654,8.0
58.4312,8.0
58.6972,10.0
58.9632,7.0
59.2294,13.0
59.4957,12.0
59.7621,16.0
60.0286,34.0
60.2952,19.0
60.562,8.0
60.8288,8.0
61.0958,10.0
61.3629,12.0
61.6301,6.0
61.8974,13.0
62.1649,23.0
62.4325,9.0
62.7002,8.0
62.968,8.0
63.2359,11.0
63.504,10.0
63.7722,11.0
64.0405,13.0
64.309,7.0
64.5776,5.0
64.8463,6.0
65.1151,12.0
65.3841,16.0
65.6532,14.0
65.9225,15.0
66.1919,13.0
66.4614,14.0
66.7311,11.0
67.0009,12.0
67.2708,16.0
67.5409,15.0
67.8112,8.0
68.0815,8.0
68.3521,28.0
68.6227,18.0
68.8935,14.0
69.1645,10.0
69.4356,10.0
69.7069,19.0
69.9783,20.0
70.2499,12.0
70.5216,8.0
70.7935,12.0
71.0656,6.0
71.3378,11.0
71.6102,8.0
71.8827,8.0
72.1554,6.0
72.4283,5.0
72.7013,6.0
72.9745,9.0
73.2479,5.0
73.5214,9.0
73.7951,13.0
74.069,8.0
74.3431,4.0
74.6173,10.0
74.8917,9.0
75.1663,13.0
75.4411,11.0
75.7161,11.0
75.9912,12.0
76.2665,11.0
76.5421,5.0
76.8178,9.0
77.0937,11.0
77.3698,7.0
77.6461,4.0
77.9226,7.0
78.1992,5.0
78.4761,6.0
78.7532,8.0
79.0305,6.0
79.308,4.0
79.5857,12.0
79.8636,12.0
80.1417,10.0
80.4201,10.0
80.6986,6.0
80.9774,7.0
81.2564,5.0
81.5356,4.0
81.815,8.0
82.0947,16.0
82.3746,7.0
82.6547,9.0
82.935,6.0
83.2156,8.0
83.4964,8.0
83.6241,4.0

File: Piperidinium_Iodide.lbl_rescaled.xy
# Processed xy data with Haverford two-theta converted to LBL scale
two_theta,intensity
5.81234,2.0
6.06814,3.0
6.32395,2.0
6.57977,4.0
6.8356,2.0
7.09144,1.0
7.34728,2.0
7.60314,3.0
7.85901,3.0
8.11488,6.0
8.37077,3.0
8.62667,2.0
8.88257,2.0
9.1385,3.0
9.39443,0.0
9.65037,1.0
9.90633,0.0
10.1623,3.0
10.4183,4.0
10.6743,3.0
10.9303,6.0
11.1863,62.0
11.4424,6.0
11.6984,1.0
11.9545,5.0
12.2106,2.0
12.4667,2.0
12.7228,2.0
12.9789,2.0
13.2351,5.0
13.4912,3.0
13.7474,2.0
14.0036,2.0
14.2599,4.0
14.5161,3.0
14.7724,4.0
15.0287,2.0
15.285,4.0
15.5413,3.0
15.7976,8.0
16.054,4.0
16.3104,35.0
16.5668,11.0
16.8232,2.0
17.0797,5.0
17.3361,0.0
17.5926,3.0
17.8491,2.0
18.1057,1.0
18.3623,1.0
18.6188,8.0
18.8755,26.0
19.1321,13.0
19.3888,7.0
19.6455,4.0
19.9022,2.0
20.1589,3.0
20.4157,27.0
20.6725,10.0
20.9294,1.0
21.1862,6.0
21.4431,6.0
21.7,17.0
21.957,30.0
22.2139,215.0
22.4709,17.0
22.728,8.0
22.9851,50.0
23.2422,100.0
23.4993,5.0
23.7564,4.0
24.0136,3.0
24.2709,11.0
24.5281,12.0
24.7854,8.0
25.0428,3.0
25.3001,15.0
25.5575,71.0
25.815,64.0
26.0724,17.0
26.3299,45.0
26.5875,58.0
26.8451,67.0
27.1027,44.0
27.3603,5.0
27.618,5.0
27.8758,8.0
28.1335,5.0
28.3913,24.0
28.6492,46.0
28.9071,30.0
29.165,29.0
29.423,8.0
29.681,8.0
29.9391,7.0
30.1972,5.0
30.4553,5.0
30.7135,8.0
30.9717,3.0
31.23,4.0
31.4883,6.0
31.7467,7.0
32.0051,8.0
32.2635,10.0
32.522,37.0
32.7806,82.0
33.0392,38.0
33.2978,52.0
33.5565,142.0
33.8153,15.0
34.0741,15.0
34.3329,9.0
34.5918,7.0
34.8507,20.0
35.1097,50.0
35.3688,13.0
35.6279,28.0
35.887,26.0
36.1462,20.0
36.4055,26.0
36.6648,6.0
36.9241,7.0
37.1836,3.0
37.443,4.0
37.7026,9.0
37.9621,25.0
38.2218,43.0
38.4815,29.0
38.7412,21.0
39.0011,2.0
39.2609,17.0
39.5209,18.0
39.7809,26.0
40.0409,17.0
40.3011,14.0
40.5612,15.0
40.8215,9.0
41.0818,8.0
41.3421,24.0
41.6026,30.0
41.8631,8.0
42.1236,6.0
42.3843,4.0
42.645,10.0
42.9057,7.0
43.1665,7.0
43.4274,6.0
43.6884,15.0
43.9494,17.0
44.2105,40.0
44.4717,12.0
44.733,10.0
44.9943,24.0
45.2557,11.0
45.5171,11.0
45.7786,23.0
46.0403,15.0
46.3019,6.0
46.5637,13.0
46.8255,4.0
47.0874,9.0
47.3494,10.0
47.6115,8.0
47.8736,13.0
48.1358,3.0
48.3981,5.0
48.6605,7.0
48.923,4.0
49.1855,16.0
49.4481,20.0
49.7108,37.0
49.9736,13.0
50.2365,11.0
50.4994,9.0
50.7625,15.0
51.0256,10.0
51.2888,20.0
51.5521,20.0
51.8155,10.0
52.079,24.0
52.3426,21.0
52.6062,19.0
52.87,16.0
53.1338,32.0
53.3978,17.0
53.6618,17.0
53.9259,9.0
54.1901,9.0
54.4545,9.0
54.7189,12.0
54.9834,15.0
55.248,13.0
55.5127,8.0
55.7775,9.0
56.0424,9.0
56.3074,9.0
56.5725,8.0
56.8377,19.0
57.103,32.0
57.3685,29.0
57.634,13.0
57.8996,4.0
58.1654,9.0
58.4312,7.0
58.6972,9.0
58.9632,9.0
59.2294,27.0
59.4957,15.0
59.7621,13.0
60.0286,13.0
60.2952,13.0
60.562,10.0
60.8288,11.0
61.0958,18.0
61.3629,13.0
61.6301,19.0
61.8974,6.0
62.1649,7.0
62.4325,11.0
62.7002,6.0
62.968,7.0
63.2359,9.0
63.504,7.0
63.7722,10.0
64.0405,12.0
64.309,16.0
64.5776,9.0
64.8463,10.0
65.1151,15.0
65.3841,15.0
65.6532,21.0
65.9225,10.0
66.1919,9.0
66.4614,7.0
66.7311,7.0
67.0009,6.0
67.2708,8.0
67.5409,6.0
67.8112,7.0
68.0815,11.0
68.3521,11.0
68.6227,9.0
68.8935,8.0
69.1645,12.0
69.4356,8.0
69.7069,9.0
69.9783,13.0
70.2499,14.0
70.5216,12.0
70.7935,8.0
71.0656,11.0
71.3378,15.0
71.6102,8.0
71.8827,8.0
72.1554,11.0
72.4283,6.0
72.7013,13.0
72.9745,11.0
73.2479,10.0
73.5214,7.0
73.7951,11.0
74.069,12.0
74.3431,11.0
74.6173,7.0
74.8917,11.0
75.1663,14.0
75.4411,7.0
75.7161,10.0
75.9912,9.0
76.2665,11.0
76.5421,3.0
76.8178,7.0
77.0937,5.0
77.3698,7.0
77.6461,7.0
77.9226,4.0
78.1992,5.0
78.4761,9.0
78.7532,6.0
79.0305,5.0
79.308,6.0
79.5857,7.0
79.8636,10.0
80.1417,10.0
80.4201,9.0
80.6986,3.0
80.9774,10.0
81.2564,8.0
81.5356,9.0
81.815,11.0
82.0947,11.0
82.3746,3.0
82.6547,13.0
82.935,13.0
83.2156,5.0
83.4964,10.0
83.6241,10.0

File: Quincilinidium_Bromide.lbl_rescaled.xy
# Processed xy data with Haverford two-theta converted to LBL scale
two_theta,intensity
5.81234,11.0
6.06814,6.0
6.32395,5.0
6.57977,7.0
6.8356,7.0
7.09144,7.0
7.34728,6.0
7.60314,6.0
7.85901,6.0
8.11488,4.0
8.37077,7.0
8.62667,5.0
8.88257,6.0
9.1385,2.0
9.39443,5.0
9.65037,6.0
9.90633,3.0
10.1623,3.0
10.4183,3.0
10.6743,93.0
10.9303,4.0
11.1863,6.0
11.4424,5.0
11.6984,7.0
11.9545,7.0
12.2106,6.0
12.4667,6.0
12.7228,5.0
12.9789,3.0
13.2351,7.0
13.4912,6.0
13.7474,4.0
14.0036,5.0
14.2599,5.0
14.5161,5.0
14.7724,5.0
15.0287,4.0
15.285,6.0
15.5413,5.0
15.7976,5.0
16.054,6.0
16.3104,6.0
16.5668,5.0
16.8232,5.0
17.0797,6.0
17.3361,2.0
17.5926,5.0
17.8491,6.0
18.1057,5.0
18.3623,7.0
18.6188,6.0
18.8755,7.0
19.1321,6.0
19.3888,6.0
19.6455,17.0
19.9022,14.0
20.1589,6.0
20.4157,6.0
20.6725,11.0
20.9294,7.0
21.1862,31.0
21.4431,194.0
21.7,375.0
21.957,981.0
22.2139,23.0
22.4709,7.0
22.728,10.0
22.9851,6.0
23.2422,4.0
23.4993,7.0
23.7564,8.0
24.0136,9.0
24.2709,18.0
24.5281,30.0
24.7854,4.0
25.0428,6.0
25.3001,8.0
25.5575,6.0
25.815,22.0
26.0724,35.0
26.3299,8.0
26.5875,9.0
26.8451,6.0
27.1027,18.0
27.3603,38.0
27.618,7.0
27.8758,2.0
28.1335,6.0
28.3913,6.0
28.6492,12.0
28.9071,49.0
29.165,8.0
29.423,6.0
29.681,6.0
29.9391,5.0
30.1972,8.0
30.4553,10.0
30.7135,20.0
30.9717,121.0
31.23,4.0
31.4883,4.0
31.7467,8.0
32.0051,10.0
32.2635,11.0
32.522,71.0
32.7806,77.0
33.0392,14.0
33.2978,26.0
33.5565,26.0
33.8153,10.0
34.0741,8.0
34.3329,5.0
34.5918,7.0
34.8507,15.0
35.1097,80.0
35.3688,68.0
35.6279,22.0
35.887,26.0
36.1462,14.0
36.4055,22.0
36.6648,21.0
36.9241,11.0
37.1836,7.0
37.443,6.0
37.7026,7.0
37.9621,11.0
38.2218,57.0
38.4815,11.0
38.7412,5.0
39.0011,8.0
39.2609,9.0
39.5209,37.0
39.7809,59.0
40.0409,34.0
40.3011,23.0
40.5612,3.0
40.8215,8.0
41.0818,3.0
41.3421,5.0
41.6026,6.0
41.8631,5.0
42.1236,5.0
42.3843,7.0
42.645,9.0
42.9057,25.0
43.1665,11.0
43.4274,8.0
43.6884,5.0
43.9494,29.0
44.2105,27.0
44.4717,12.0
44.733,27.0
44.9943,13.0
45.2557,28.0
45.5171,16.0
45.7786,6.0
46.0403,10.0
46.3019,16.0
46.5637,20.0
46.8255,5.0
47.0874,17.0
47.3494,62.0
47.6115,15.0
47.8736,7.0
48.1358,10.0
48.3981,5.0
48.6605,21.0
48.923,4.0
49.1855,13.0
49.4481,13.0
49.7108,15.0
49.9736,13.0
50.2365,12.0
50.4994,11.0
50.7625,5.0
51.0256,7.0
51.2888,10.0
51.5521,7.0
51.8155,4.0
52.079,4.0
52.3426,11.0
52.6062,11.0
52.87,8.0
53.1338,10.0
53.3978,25.0
53.6618,9.0
53.9259,7.0
54.1901,6.0
54.4545,10.0
54.7189,12.0
54.9834,8.0
55.248,7.0
55.5127,9.0
55.7775,39.0
56.0424,32.0
56.3074,37.0
56.5725,36.0
56.8377,11.0
57.103,8.0
57.3685,19.0
57.634,41.0
57.8996,16.0
58.1654,17.0
58.4312,31.0
58.6972,26.0
58.9632,10.0
59.2294,5.0
59.4957,12.0
59.7621,15.0
60.0286,8.0
60.2952,6.0
60.562,15.0
60.8288,41.0
61.0958,21.0
61.3629,13.0
61.6301,8.0
61.8974,8.0
62.1649,5.0
62.4325,9.0
62.7002,7.0
62.968,5.0
63.2359,7.0
63.504,12.0
63.7722,15.0
64.0405,25.0
64.309,18.0
64.5776,9.0
64.8463,10.0
65.1151,6.0
65.3841,9.0
65.6532,3.0
65.9225,4.0
66.1919,6.0
66.4614,4.0
66.7311,17.0
67.0009,13.0
67.2708,6.0
67.5409,6.0
67.8112,3.0
68.0815,7.0
68.3521,18.0
68.6227,10.0
68.8935,8.0
69.1645,9.0
69.4356,7.0
69.7069,15.0
69.9783,15.0
70.2499,17.0
70.5216,12.0
70.7935,12.0
71.0656,17.0
71.3378,8.0
71.6102,7.0
71.8827,9.0
72.1554,9.0
72.4283,8.0
72.7013,9.0
72.9745,13.0
73.2479,10.0
73.5214,7.0
73.7951,9.0
74.069,21.0
74.3431,14.0
74.6173,15.0
74.8917,6.0
75.1663,7.0
75.4411,4.0
75.7161,8.0
75.9912,11.0
76.2665,8.0
76.5421,12.0
76.8178,5.0
77.0937,10.0
77.3698,10.0
77.6461,13.0
77.9226,11.0
78.1992,16.0
78.4761,13.0
78.7532,7.0
79.0305,5.0
79.308,9.0
79.5857,18.0
79.8636,13.0
80.1417,17.0
80.4201,8.0
80.6986,9.0
80.9774,13.0
81.2564,7.0
81.5356,8.0
81.815,12.0
82.0947,7.0
82.3746,7.0
82.6547,7.0
82.935,9.0
83.2156,9.0
83.4964,8.0
83.6241,18.0