Folder: rapid/data/xrd/xy (part 11)

File: 2019-06-18T20_49_29.598214+00_00_LBL_F1.xy
'Id: "" Comment: "Integrate frame neopen_trifluo_03_001.gfrmwith cursor Wedge Cursor #3" Operator: "UC Berkeley" Anode: "Co" Scantype: "TwoTheta" TimePerStep: "700"
14.215 -0.0242766
14.4 -0.00702415
14.585 0.0524821
14.77 0.1288
14.955 0.0541219
15.14 0.0131915
15.325 0.0103162
15.51 0.0328218
15.695 0.0553195
15.88 0.00726304
16.065 0.0151983
16.25 0.00534678
16.435 0.00364319
16.62 0.013117
16.805 0.0554553
16.99 0.0509315
17.175 0.0196458
17.36 0.0252749
17.545 0.00971491
17.73 0.0172877
17.915 -0.012383
18.1 0.012878
18.285 0.00291905
18.47 0.0279227
18.655 -0.00961555
18.84 0.0255373
19.025 0.0104388
19.21 0.0226019
19.395 -0.00155449
19.58 0.0569574
19.765 0.014659
19.95 0.0209065
20.135 0.08361
20.32 0.00834595
20.505 0.0689293
20.69 0.0673622
20.875 0.0664531
21.06 0.0241741
21.245 0.0305175
21.43 0.0249174
21.615 0.0161448
21.8 0.0398025
21.985 0.025997
22.17 0.0257588
22.355 0.0174803
22.54 0.0539112
22.725 0.00943637
22.91 0.0188335
23.095 0.0387833
23.28 -0.00135625
23.465 0.00496389
23.65 0.00570117
23.835 0.03717
24.02 -0.000710792
24.205 0.0135196
24.39 0.0239737
24.575 0.0177314
24.76 0.0580792
24.945 -0.00184545
25.13 -0.0156018
25.315 0.0431904
25.5 0.0358065
25.685 0.0229993
25.87 0.044756
26.055 0.0199592
26.24 0.0113059
26.425 0.0351053
26.61 0.0359693
26.795 0.0203304
26.98 -0.00201235
27.165 0.0531009
27.35 0.00298659
27.535 0.0431466
27.72 0.0238083
27.905 0.0274428
28.09 0.00316357
28.275 -0.0128357
28.46 0.0177631
28.645 -0.0285612
28.83 0.019441
29.015 0.0426619
29.2 0.0330408
29.385 0.0544208
29.57 0.0183437
29.755 0.0574559
29.94 0.0540012
30.125 0.337605
30.31 0.169352
30.495 0.0256637
30.68 0.0320186
30.865 0.0119286
31.05 0.0109814
31.235 0.00279263
31.42 -0.0102506
31.605 0.0268557
31.79 0.0100568
31.975 0.00613086
32.16 0.0179666
32.345 -0.00291821
32.53 0.0362946
32.715 0.00589308
32.9 0.0563452
33.085 0.0453773
33.27 0.0454047
33.455 0.0319772
33.64 0.0116453
33.825 -0.0111314
34.01 0.024348
34.195 0.0246215
34.38 -0.00084296
34.565 0.0126365
34.75 -0.0133067
34.935 -0.0120847
35.12 -0.00973003
35.305 -0.0156074
35.49 -0.00419608
35.675 -0.00693864
35.86 0.00782776
36.045 0.0212499
36.23 -0.00542151
36.415 -0.0019517
36.6 -0.0233363
36.785 -0.00765096
36.97 0.00963898
37.155 0.00485615
37.34 -0.0216101
37.525 -0.0174322
37.71 -0.0238224
37.895 -0.0175148
38.08 -0.014797
38.265 -0.00806297
38.45 -0.0132004
38.635 -0.00321754
38.82 -0.0173515
39.005 -0.0202595
39.19 -0.0149807
39.375 -0.0160653
39.56 -0.0164661
39.745 -0.0193884
39.93 0.0950007
40.115 0.402026
40.3 0.0818181
40.485 0.0189044
40.67 0.00767642
40.855 0.00293403
41.04 -0.00735283
41.225 -0.0037607
41.41 0.00696864
41.595 -0.00486265
41.78 -0.00283737
41.965 0.0118589
42.15 0.00693231
42.335 0.0266818
42.52 -0.00826517
42.705 0.00186987
42.89 0.0311196
43.075 0.00360488
43.26 -0.0138515
43.445 -0.00219989
43.63 -0.0104428
43.815 -0.016133
44 0.00750958
44.185 0.00659034
44.37 0.013193
44.555 -0.0137242
44.74 0.0205837
44.925 0.0437137
45.11 0.329984
45.295 0.176249
45.48 0.0327034
45.665 0.0175431
45.85 0.0116148
46.035 0.134107
46.22 0.57708
46.405 0.248777
46.59 0.020936
46.775 0.00582819
46.96 0.00900094
47.145 0.0110247
47.33 0.00168805
47.515 -0.00599396
47.7 0.00625618
47.885 0.0109368
48.07 -0.00686263
48.255 -0.00646661
48.44 -0.00972939
48.625 0.0468143
48.81 0.0806713
48.995 0.00438925
49.18 -0.00944849
49.365 0.00154588
49.55 0.00294696
49.735 -0.00952283
49.92 -0.0113152
50.105 0.000701627
50.29 -8.1472e-05
50.475 -0.00319302
50.66 0.00337657
50.845 -0.00846342
51.03 0.00789878
51.215 0.0217344
51.4 -0.0155939
51.585 -0.00217468
51.77 0.00435557
51.955 -0.0209545
52.14 -0.00992634
52.325 -0.000796834
52.51 -0.0221867
52.695 0.0109542
52.88 0.00693946
53.065 0.000545675
53.25 0.000687695
53.435 -0.0060884
53.62 0.017449
53.805 -0.00618223
53.99 0.00508663
54.175 0.00475563
54.36 0.00224431
54.545 -0.00139997
54.73 -0.00819611
54.915 -0.00941029
55.1 -0.0183305
55.285 -0.00378789
55.47 -0.00725044
55.655 -0.00223966
55.84 0.00320326
56.025 0.0108188
56.21 0.0285189
56.395 0.00621604
56.58 0.0192839
56.765 0.00893212
56.95 0.00548922
57.135 0.00402347
57.32 -0.0126926
57.505 0.00720436
57.69 0.00579739
57.875 -0.0160076
58.06 0.0014342
58.245 0.00767831
58.43 0.00731555
58.615 -0.00725964
58.8 0.00972455
58.985 0.00726845
59.17 0.0068762
59.355 0.00790266
59.54 -0.0165705
59.725 0.0149848
59.91 0.00679511
60.095 0.00715053
60.28 -0.0174863
60.465 0.01495
60.65 -0.0103523
60.835 -0.01209
61.02 -0.00631674
61.205 -0.00320034
61.39 0.0683742
61.575 0.18302
61.76 0.0925465
61.945 0.00537556
62.13 -0.00865304
62.315 -0.01198
62.5 0.00648316
62.685 0.0211252
62.87 0.0186068
63.055 -0.00615503
63.24 -0.0038071
63.425 0.000294796
63.61 0.00545556
63.795 4.84461e-05
63.98 -0.0156474
64.165 -0.000101948
64.35 -0.0102807
64.535 -0.00553238
64.72 -0.00264455
64.905 -0.000200375
65.09 -0.00502847
65.275 -0.0069832
65.46 -0.00318443
65.645 0.0148445
65.83 0.0176645
66.015 -0.00648664
66.2 -0.00196351
66.385 0.053032
66.57 0.106554
66.755 0.0746511
66.94 0.0138766
67.125 0.00209863
67.31 -0.0117813
67.495 0.000605611
67.68 5.18861e-05
67.865 -0.00531605
68.05 -0.009871
68.235 0.0021404
68.42 -0.0120116
68.525 -0.0176731

File: 2019-06-18T20_54_55.536969+00_00_LBL_A1.xy
'Id: "" Comment: "Integrate frame 20190723_4triFMePh_01_002.gfrmwith cursor Wedge Cursor #1" Operator: "UC Berkeley" Anode: "Co" Scantype: "TwoTheta" TimePerStep: "600"
20.5 -0.0245228
20.685 0.0572325
20.87 0.056128
21.055 0.0675072
21.24 0.0695987
21.425 0.0606135
21.61 0.12743
21.795 0.0629168
21.98 0.0151997
22.165 0.0486073
22.35 -0.00319664
22.535 0.05639
22.72 0.0116244
22.905 0.0796914
23.09 0.0455417
23.275 0.0297602
23.46 0.0548922
23.645 0.0687112
23.83 0.0506378
24.015 0.0576912
24.2 0.0342487
24.385 0.0184192
24.57 -0.021996
24.755 0.0208396
24.94 0.0600171
25.125 0.139666
25.31 0.0504263
25.495 0.122669
25.68 0.0268789
25.865 0.0343083
26.05 0.196809
26.235 0.766804
26.42 0.111375
26.605 0.0683289
26.79 0.0595514
26.975 0.00794986
27.16 0.00951459
27.345 0.0746618
27.53 0.0115666
27.715 0.0455563
27.9 0.0580633
28.085 0.0239817
28.27 -0.00361432
28.455 0.0508386
28.64 0.0997878
28.825 0.021485
29.01 0.071587
29.195 0.0451438
29.38 0.0914956
29.565 0.0496516
29.75 0.00807368
29.935 0.102166
30.12 2.28891
30.305 5.21753
30.49 0.197541
30.675 0.033728
30.86 0.0305016
31.045 0.0603291
31.23 0.0192544
31.415 0.0829457
31.6 0.0397319
31.785 0.0255182
31.97 0.0393262
32.155 0.0163765
32.34 0.0179709
32.525 0.0577563
32.71 0.0650823
32.895 0.00978074
33.08 0.0536433
33.265 0.0457917
33.45 0.0630681
33.635 0.0321668
33.82 0.0436892
34.005 0.0270454
34.19 0.0087175
34.375 0.00326362
34.56 0.0374657
34.745 0.0160298
34.93 0.0350016
35.115 0.0325021
35.3 0.00682978
35.485 -0.00926119
35.67 0.0249299
35.855 -0.00117655
36.04 0.00275402
36.225 0.00495813
36.41 0.0577872
36.595 0.00687728
36.78 0.0300216
36.965 0.0514494
37.15 0.0201589
37.335 0.0266439
37.52 0.0332907
37.705 -0.00247013
37.89 0.0605654
38.075 0.00882354
38.26 0.0200843
38.445 0.0140307
38.63 0.0626805
38.815 -0.00434919
39 -0.0054851
39.185 0.00183865
39.37 0.0401202
39.555 0.0289665
39.74 0.0944699
39.925 0.657749
40.11 2.39841
40.295 0.322974
40.48 0.0586402
40.665 -0.00369708
40.85 0.031887
41.035 0.0221782
41.22 0.0276339
41.405 0.0539028
41.59 0.0643872
41.775 0.00225297
41.96 0.0140836
42.145 0.0380155
42.33 0.0534625
42.515 0.029723
42.7 0.0821228
42.885 3.7515e-05
43.07 0.0257517
43.255 0.0316421
43.44 0.00603848
43.625 0.0403576
43.81 0.0857844
43.995 0.0313499
44.18 0.0153514
44.365 0.0569361
44.55 0.0600268
44.735 0.0344355
44.92 0.0530567
45.105 0.0210097
45.29 0.232391
45.475 0.052674
45.66 0.014561
45.845 0.102097
46.03 0.504288
46.215 6.28878
46.4 6.57094
46.585 0.734169
46.77 0.0545717
46.955 0.0351583
47.14 0.0255093
47.325 0.00151519
47.51 0.00889826
47.695 0.0179273
47.88 0.0500076
48.065 0.0769075
48.25 0.0575458
48.435 0.0234596
48.62 0.182921
48.805 1.13268
48.99 0.716902
49.175 0.0768222
49.36 0.034598
49.545 0.0311301
49.73 0.021709
49.915 0.0400779
50.1 0.0467701
50.285 0.0474114
50.47 0.00228999
50.655 0.00697341
50.84 0.0255586
51.025 0.0306354
51.21 0.000676847
51.395 0.0176031
51.58 0.0156668
51.765 0.0202478
51.95 0.00473662
52.135 0.0120568
52.32 -0.00686885
52.505 0.0206829
52.69 -0.00400682
52.875 0.153462
53.06 0.452888
53.245 0.316768
53.43 0.0407226
53.615 0.00668209
53.8 0.0405324
53.985 0.199152
54.17 0.105647
54.355 0.0311191
54.54 0.0331955
54.725 0.0246714
54.91 0.0161913
55.095 0.00766369
55.28 0.0261202
55.465 0.0145729
55.65 0.000202551
55.835 0.0905835
56.02 0.390897
56.205 2.07401
56.39 2.08781
56.575 0.640618
56.76 0.0460606
56.945 -0.014524
57.13 -0.010557
57.315 0.0147837
57.5 0.0393419
57.685 0.0379803
57.87 0.0433158
58.055 0.0166372
58.24 -0.0107008
58.425 0.0111283
58.61 -0.00184044
58.795 0.0548682
58.98 0.0359362
59.165 0.00319508
59.35 0.0117704
59.535 -0.00922009
59.72 0.0411391
59.905 0.0386375
60.09 0.0306442
60.275 0.0414683
60.46 -0.0022454
60.645 0.014219
60.83 0.0263459
61.015 0.020817
61.2 0.0108465
61.385 0.0207492
61.57 0.100256
61.755 0.171341
61.94 0.107466
62.125 0.0196348
62.31 0.0431471
62.495 0.0728787
62.68 0.733495
62.865 1.14569
63.05 0.734607
63.235 0.175843
63.42 0.0447133
63.605 0.0225937
63.79 0.0174805
63.975 -0.00222262
64.16 -0.000722477
64.345 0.0180268
64.53 0.0178822
64.715 0.0171905
64.9 0.0493749
65.085 0.00175399
65.27 0.0276805
65.455 0.0247814
65.64 0.0207725
65.825 0.0148131
66.01 0.028233
66.195 0.00786112
66.38 0.0323272
66.565 0.204986
66.75 0.307257
66.935 0.278917
67.12 0.0369242
67.305 -0.00437438
67.49 0.019032
67.675 0.042477
67.86 -0.0066945
68.045 0.0207621
68.23 0.0439833
68.415 0.0386802
68.6 -0.00282005
68.785 0.00516487
68.97 0.0194707
69.155 -0.0076813
69.34 0.0279946
69.525 0.0266379
69.71 0.00665267
69.895 0.024473
70.08 0.0125196
70.265 0.00731528
70.45 0.026067
70.635 0.000765544
70.82 0.0310152
71.005 0.0193165
71.19 0.0380137
71.375 0.0202355
71.56 -0.00331424
71.745 0.0111401
71.93 0.0192621
72.115 0.0276836
72.3 0.03792
72.485 0.00792234
72.67 0.0156105
72.855 0.110472
73.04 0.193392
73.225 0.148484
73.41 0.031415
73.595 0.0398233
73.78 0.0626011
73.965 0.0406169
74.15 0.0200475
74.335 -0.00290748
74.52 0.0124902
74.705 0.0175052
74.89 0.0395847
75.075 0.0380376
75.26 0.000309521
75.445 0.0340386
75.63 0.112327
75.725 -0.0357516

File: 2019-06-18T20_54_55.536969+00_00_LBL_A5.xy
'Id: "" Comment: "Integrate frame 20190723_4triFMePh_03_003.gfrmwith cursor Wedge Cursor #2" Operator: "UC Berkeley" Anode: "Co" Scantype: "TwoTheta" TimePerStep: "600.002"
24.875 -0.0238926
25.045 0.040101
25.215 0.063657
25.385 -0.0116323
25.555 0.0619015
25.725 0.0578667
25.895 0.0446895
26.065 0.0568419
26.235 0.167876
26.405 0.0158921
26.575 0.00541384
26.745 0.0698713
26.915 0.0057968
27.085 0.0521728
27.255 0.0352768
27.425 0.00381152
27.595 0.00597216
27.765 0.0498984
27.935 0.0326242
28.105 0.0620137
28.275 0.0837835
28.445 -0.000540801
28.615 0.0254557
28.785 0.0247607
28.955 0.0591372
29.125 0.0637698
29.295 0.0331477
29.465 0.0739453
29.635 0.670428
29.805 0.737702
29.975 0.175616
30.145 1.55241
30.315 2.22213
30.485 0.140032
30.655 0.0186158
30.825 0.00673667
30.995 0.0264045
31.165 -0.00844728
31.335 0.00153182
31.505 0.0326234
31.675 0.00776381
31.845 0.0143964
32.015 0.0142564
32.185 0.0134839
32.355 0.0167314
32.525 0.00796774
32.695 0.0283931
32.865 0.00784308
33.035 0.00797132
33.205 0.0257436
33.375 0.0281625
33.545 0.0351392
33.715 0.0410026
33.885 0.0334131
34.055 0.00606405
34.225 -0.00821545
34.395 0.0405548
34.565 0.092132
34.735 0.0614352
34.905 0.0206237
35.075 0.0670417
35.245 -0.00172207
35.415 0.0307717
35.585 0.0141247
35.755 0.0470346
35.925 0.0134069
36.095 0.0173215
36.265 0.0545381
36.435 0.0235024
36.605 0.0165785
36.775 -0.0187459
36.945 0.00699232
37.115 0.00850229
37.285 -0.000253743
37.455 0.00791833
37.625 0.0124805
37.795 0.00841762
37.965 -0.00695549
38.135 -0.00129937
38.305 0.00485032
38.475 0.000173421
38.645 0.013556
38.815 0.0103014
38.985 0.0155151
39.155 0.0111293
39.325 0.0117338
39.495 0.0585152
39.665 0.122635
39.835 0.440742
40.005 2.35066
40.175 2.10287
40.345 0.319539
40.515 0.0849396
40.685 0.0073176
40.855 0.00907845
41.025 -0.00600736
41.195 -0.0149771
41.365 0.00671487
41.535 0.0200228
41.705 0.0111194
41.875 -0.00612331
42.045 0.0190344
42.215 0.00710374
42.385 -0.00778899
42.555 -0.00769505
42.725 0.000678048
42.895 0.0222547
43.065 0.0299654
43.235 -0.014532
43.405 0.0490292
43.575 -0.00691649
43.745 0.0232748
43.915 0.0365697
44.085 0.0321761
44.255 0.0599218
44.425 0.0557619
44.595 0.0287283
44.765 0.0706377
44.935 0.305674
45.105 2.69528
45.275 3.39765
45.445 0.719504
45.615 0.0584376
45.785 0.000295292
45.955 0.0316838
46.125 0.332737
46.295 0.708291
46.465 0.409675
46.635 0.0472491
46.805 -0.00703859
46.975 0.0304351
47.145 0.00217691
47.315 0.0130236
47.485 0.0462631
47.655 0.0246138
47.825 -0.00203011
47.995 -0.00343808
48.165 0.0059414
48.335 0.00614265
48.505 0.00807631
48.675 0.0804516
48.845 0.222367
49.015 0.146095
49.185 0.0248765
49.355 0.0150233
49.525 -0.00108475
49.695 0.0106487
49.865 -0.0104232
50.035 0.00445061
50.205 -0.0050983
50.375 0.0112084
50.545 -0.00960731
50.715 0.0368754
50.885 0.0091669
51.055 0.00984123
51.225 0.00648357
51.395 0.00863414
51.565 -0.0025014
51.735 0.0325402
51.905 0.0125293
52.075 -0.0025478
52.245 0.00990299
52.415 0.0184624
52.585 0.0468629
52.755 0.213451
52.925 0.840925
53.095 1.1239
53.265 0.541151
53.435 0.0856824
53.605 0.0162692
53.775 -0.00171077
53.945 0.00344539
54.115 0.00341005
54.285 0.00377327
54.455 0.0140175
54.625 0.00701913
54.795 0.00198697
54.965 0.00457775
55.135 0.0231396
55.305 0.00275952
55.475 -0.000234612
55.645 -9.95708e-05
55.815 0.00835926
55.985 0.100853
56.155 0.232285
56.325 0.308413
56.495 0.259169
56.665 0.0553636
56.835 0.0102533
57.005 0.0185945
57.175 0.0277143
57.345 0.0129152
57.515 0.00630173
57.685 0.0249214
57.855 0.0197428
58.025 -0.00481848
58.195 0.0165796
58.365 0.00874965
58.535 0.0390378
58.705 0.0295095
58.875 0.0298836
59.045 0.052293
59.215 0.0219924
59.385 0.019055
59.555 0.0142097
59.725 0.00385878
59.895 0.0254036
60.065 0.0367821
60.235 0.0121785
60.405 0.0399747
60.575 0.0302105
60.745 0.0101526
60.915 0.0329651
61.085 0.0351433
61.255 0.112944
61.425 0.629289
61.595 1.61804
61.765 1.43485
61.935 0.497329
62.105 0.0745778
62.275 0.0223556
62.445 0.0181891
62.615 0.110672
62.785 0.259794
62.955 0.436206
63.125 0.215438
63.295 0.0404548
63.465 -0.0104211
63.635 0.0253071
63.805 -0.005471
63.975 0.0141539
64.145 0.015065
64.315 -0.00712003
64.485 0.0306847
64.655 0.00943738
64.825 0.0164002
64.995 0.0383703
65.165 0.0219579
65.335 0.0304134
65.505 0.0232792
65.675 0.0104748
65.845 0.0265927
66.015 0.022698
66.185 0.00576289
66.355 0.0660374
66.525 0.242053
66.695 0.42922
66.865 0.435927
67.035 0.192887
67.205 0.0578739
67.375 0.00549503
67.545 0.0107774
67.715 0.00575643
67.885 -0.00697324
68.055 0.0726827
68.225 0.147742
68.395 0.0963536
68.565 0.0444621
68.735 0.014867
68.905 -0.00163016
69.075 0.00677517
69.245 0.00624894
69.415 0.0224985
69.585 0.0225116
69.755 0.00215287
69.925 0.006442
70.095 0.00191682
70.265 -0.00111448
70.435 0.00430465
70.605 0.0124573
70.775 -0.0139059
70.945 0.0272449
71.115 0.0121506
71.285 0.0289868
71.455 -0.00436944
71.625 0.0139928
71.795 0.0303713
71.965 0.00209851
72.135 -2.94917e-05
72.305 0.0199767
72.475 -0.00776755
72.645 0.0128296
72.815 0.0477504
72.985 0.160362
73.155 0.143603
73.325 0.0944228
73.495 -0.000471292
73.665 0.00444784
73.835 -0.00586401
74.005 0.0138214
74.175 0.0255284
74.345 0.00151959
74.515 0.0279625
74.685 0.0205094
74.855 0.0187659
75.025 0.00376083
75.18 -0.0147496

File: 2019-06-18T20_54_55.536969+00_00_LBL_F1.xy
'Id: "" Comment: "Integrate frame 20190723_4triFMePh_02_002.gfrmwith cursor Wedge Cursor #1" Operator: "UC Berkeley" Anode: "Co" Scantype: "TwoTheta" TimePerStep: "600"
23.355 -0.0251342
23.535 0.0344254
23.715 0.0232667
23.895 0.00154944
24.075 0.0381971
24.255 0.106418
24.435 0.0467923
24.615 0.115281
24.795 -0.00354215
24.975 0.0609147
25.155 0.119574
25.335 0.0967444
25.515 0.122026
25.695 0.057718
25.875 0.00201719
26.055 0.136612
26.235 0.431835
26.415 0.0950496
26.595 -0.0085633
26.775 0.123777
26.955 0.0550324
27.135 0.071179
27.315 0.0650913
27.495 0.0103447
27.675 0.0189676
27.855 0.140928
28.035 0.00803902
28.215 0.0911302
28.395 0.0642945
28.575 0.0374571
28.755 0.0191425
28.935 0.105038
29.115 0.0978876
29.295 0.0828966
29.475 0.0264869
29.655 0.220414
29.835 0.178176
30.015 0.645915
30.195 6.7748
30.375 1.4414
30.555 0.13669
30.735 0.0191497
30.915 0.0705377
31.095 -0.00546558
31.275 0.103455
31.455 0.0429593
31.635 0.0544638
31.815 0.0237804
31.995 0.059611
32.175 0.0714054
32.355 0.0205915
32.535 -0.00501959
32.715 0.0476835
32.895 0.0597983
33.075 0.0316363
33.255 0.0808029
33.435 0.0287044
33.615 0.0698154
33.795 0.0579179
33.975 0.0281717
34.155 0.0546426
34.335 0.0311474
34.515 0.00743976
34.695 0.040719
34.875 0.0231172
35.055 0.076104
35.235 0.0257338
35.415 0.0135283
35.595 0.0689251
35.775 0.0682837
35.955 0.0596269
36.135 0.125061
36.315 0.0368646
36.495 0.00991534
36.675 0.0212633
36.855 0.00231455
37.035 0.0208526
37.215 0.0187837
37.395 0.0510423
37.575 0.015984
37.755 -0.00320074
37.935 0.016297
38.115 0.0338462
38.295 0.0330909
38.475 0.0118187
38.655 0.0240434
38.835 -0.0120138
39.015 0.0256258
39.195 -0.00158435
39.375 -0.00756423
39.555 0.0886819
39.735 0.242428
39.915 2.00139
40.095 4.33346
40.275 0.954276
40.455 0.171417
40.635 0.0461543
40.815 0.014334
40.995 0.0212835
41.175 -0.0123408
41.355 0.0117935
41.535 -0.00284561
41.715 0.0298686
41.895 0.0533311
42.075 0.046009
42.255 0.0584726
42.435 0.0212442
42.615 0.0642482
42.795 0.0271561
42.975 0.0013394
43.155 -0.0179397
43.335 0.0360146
43.515 0.0782241
43.695 0.0249907
43.875 0.0466788
44.055 0.0481815
44.235 0.0265397
44.415 0.0332972
44.595 0.034807
44.775 0.0253008
44.955 0.0712444
45.135 0.838943
45.315 1.29225
45.495 0.247132
45.675 0.0709538
45.855 0.0761072
46.035 0.467224
46.215 2.69644
46.395 1.44085
46.575 0.185485
46.755 0.0023899
46.935 -0.000884468
47.115 0.0147843
47.295 0.0100769
47.475 0.0153663
47.655 0.0475731
47.835 0.00557354
48.015 0.0461667
48.195 0.028099
48.375 0.00670015
48.555 0.109322
48.735 0.553918
48.915 0.485334
49.095 0.0366065
49.275 -0.0125256
49.455 -0.00666952
49.635 0.000743078
49.815 0.00252909
49.995 0.00300704
50.175 0.0345696
50.355 0.0132693
50.535 -0.00820581
50.715 0.0369844
50.895 0.0137711
51.075 0.0198775
51.255 0.0249546
51.435 0.00453749
51.615 0.021075
51.795 0.00794114
51.975 0.014492
52.155 0.0458576
52.335 0.0141148
52.515 0.0078591
52.695 0.136085
52.875 0.632845
53.055 1.27986
53.235 0.762191
53.415 0.110339
53.595 0.0255346
53.775 0.019731
53.955 0.0728597
54.135 0.00156912
54.315 -0.0032995
54.495 0.00993748
54.675 -0.00528188
54.855 0.00214071
55.035 0.0163233
55.215 0.00524178
55.395 0.0228601
55.575 0.00499479
55.755 0.0724135
55.935 0.177178
56.115 0.806994
56.295 1.0533
56.475 0.474317
56.655 0.0862201
56.835 0.0342013
57.015 0.0106652
57.195 0.0221077
57.375 0.0405026
57.555 0.0452842
57.735 0.0450475
57.915 0.0214212
58.095 0.0252638
58.275 0.0131522
58.455 0.00158883
58.635 0.003493
58.815 0.0216505
58.995 0.0305103
59.175 0.0405431
59.355 0.0401362
59.535 0.0354279
59.715 0.0203943
59.895 0.05818
60.075 0.0457832
60.255 0.0348545
60.435 0.0376801
60.615 0.0202926
60.795 -0.00554552
60.975 -0.00643566
61.155 0.0401138
61.335 0.098946
61.515 0.391584
61.695 0.661247
61.875 0.512942
62.055 0.16748
62.235 0.0300018
62.415 0.0643361
62.595 0.331883
62.775 0.659669
62.955 0.580433
63.135 0.205322
63.315 0.0415223
63.495 0.00974728
63.675 0.0410556
63.855 0.0349622
64.035 0.016188
64.215 0.0349894
64.395 0.0167567
64.575 0.0527764
64.755 0.0374713
64.935 0.016586
65.115 0.0223108
65.295 0.0150195
65.475 0.00469459
65.655 0.011362
65.835 0.0194053
66.015 0.0113941
66.195 0.0216434
66.375 0.1374
66.555 0.389324
66.735 0.573491
66.915 0.362612
67.095 0.107698
67.275 0.0422971
67.455 0.0327206
67.635 0.0250001
67.815 -0.000467168
67.995 0.0636398
68.175 0.118545
68.355 0.158769
68.535 0.0348585
68.715 0.0475264
68.895 0.0358808
69.075 0.00963898
69.255 0.0305975
69.435 0.0368803
69.615 0.0712723
69.795 0.0178686
69.975 0.0196388
70.155 0.0165696
70.335 0.00617134
70.515 0.00726118
70.695 0.0396422
70.875 0.009179
71.055 0.00456782
71.235 0.0220941
71.415 0.0169835
71.595 0.000316927
71.775 0.0444454
71.955 0.012453
72.135 0.0387247
72.315 0.0263113
72.495 -0.00479931
72.675 0.0810191
72.855 0.162362
73.035 0.219205
73.215 0.161477
73.395 0.0812934
73.575 0.0525504
73.755 0.00648864
73.935 0.035095
74.115 0.014401
74.295 0.0287513
74.475 0.0118212
74.655 0.0292542
74.835 0.00229108
75.015 0.0199658
75.195 0.0206185
75.375 0.143431
75.555 0.259552
75.735 0.198663
75.915 -0.020033