Folder: rapid/data/xrd/xy (part 17)

File: 2019-09-12T19_45_57.603044+00_00_LBL_C1.xy
'Id: "" Comment: "Integrate frame piperidinium_01_001.gfrmwith cursor Wedge Cursor #1" Operator: "UC Berkeley" Anode: "Co" Scantype: "TwoTheta" TimePerStep: "600.015"
13.655 -0.0248286
13.85 0.033754
14.045 0.0328149
14.24 0.0819083
14.435 0.0793405
14.63 0.0600241
14.825 0.0612503
15.02 0.0726334
15.215 0.042582
15.41 0.0589714
15.605 0.078547
15.8 0.0282593
15.995 0.0352252
16.19 0.0170772
16.385 0.0296801
16.58 0.0354878
16.775 -0.0191721
16.97 0.000458479
17.165 0.0217738
17.36 0.0219329
17.555 0.0087501
17.75 -0.01847
17.945 0.0358114
18.14 0.0554483
18.335 0.0435755
18.53 0.0172331
18.725 -0.00325913
18.92 0.0463649
19.115 0.0157277
19.31 0.0436098
19.505 -0.0103117
19.7 0.0227805
19.895 0.0038474
20.09 0.0483716
20.285 0.0577072
20.48 0.153355
20.675 0.105399
20.87 0.0340848
21.065 0.0211905
21.26 0.0335549
21.455 0.00299584
21.65 0.00601392
21.845 0.00591236
22.04 0.0532991
22.235 0.0382693
22.43 0.20642
22.625 0.0383691
22.82 0.00114213
23.015 0.0264191
23.21 0.000966095
23.405 0.0308847
23.6 0.306265
23.795 0.479327
23.99 0.0177612
24.185 0.0775355
24.38 0.0164314
24.575 0.012176
24.77 0.061502
24.965 -0.0111955
25.16 -0.00480325
25.355 0.014271
25.55 0.0313389
25.745 0.172572
25.94 0.0860585
26.135 0.0372594
26.33 0.10361
26.525 0.0334378
26.72 0.0146199
26.915 0.0613635
27.11 0.0151629
27.305 0.0306246
27.5 0.0186895
27.695 0.0239803
27.89 0.00289526
28.085 0.00651454
28.28 0.00338622
28.475 0.00945047
28.67 0.0572712
28.865 0.0192086
29.06 0.381869
29.255 1.82837
29.45 0.090046
29.645 -0.0104797
29.84 0.00993684
30.035 0.00481883
30.23 -0.0174929
30.425 0.0956773
30.62 0.351706
30.815 0.0156212
31.01 0.00980016
31.205 0.00402521
31.4 0.00829357
31.595 -0.00601888
31.79 0.00505556
31.985 -0.00451147
32.18 0.00611068
32.375 0.00812207
32.57 0.00593647
32.765 0.242747
32.96 0.993973
33.155 0.260876
33.35 0.0327154
33.545 -0.0177299
33.74 0.0117959
33.935 0.085626
34.13 0.0611082
34.325 -0.000430307
34.52 -0.00984169
34.715 -0.00897397
34.91 0.0500919
35.105 0.15742
35.3 0.487042
35.495 0.0761059
35.69 0.00689562
35.885 0.0484285
36.08 0.273986
36.275 1.98648
36.47 2.306
36.665 0.147327
36.86 0.914925
37.055 0.216038
37.25 0.000177393
37.445 -0.00143398
37.64 -0.00160905
37.835 0.00866644
38.03 -0.00253779
38.225 -0.00762527
38.42 0.0218207
38.615 0.0481347
38.81 0.00901719
39.005 0.014714
39.2 -0.00368911
39.395 0.00537946
39.59 0.0365732
39.785 0.231958
39.98 0.24482
40.175 0.0637595
40.37 0.0062727
40.565 0.0116924
40.76 0.00269772
40.955 0.00718169
41.15 0.00611997
41.345 0.197158
41.54 1.30849
41.735 1.55708
41.93 0.695557
42.125 0.179973
42.32 -0.00175675
42.515 0.03503
42.71 0.0473602
42.905 0.0564454
43.1 0.0114015
43.295 0.0052437
43.49 -0.00308263
43.685 -0.000628813
43.88 0.0246278
44.075 -0.00200564
44.27 0.00725209
44.465 -0.00396124
44.66 0.00729711
44.855 0.0566129
45.05 0.0339199
45.245 0.030345
45.44 0.0130489
45.635 -0.00610813
45.83 0.0228638
46.025 0.12193
46.22 0.350906
46.415 0.0721059
46.61 0.0180871
46.805 0.00311627
47 0.00600086
47.195 0.0306716
47.39 0.0203423
47.585 0.0394824
47.78 0.224803
47.975 0.255267
48.17 0.289928
48.365 0.738039
48.56 1.90997
48.755 0.36698
48.95 0.0368458
49.145 0.0473671
49.34 0.0270166
49.535 0.060497
49.73 0.308023
49.925 1.07043
50.12 1.28181
50.315 0.0686644
50.51 0.0111329
50.705 0.00853726
50.9 -0.00137291
51.095 -0.00617697
51.29 0.00896411
51.485 0.0118215
51.68 0.0504047
51.875 0.379865
52.07 0.415197
52.265 0.25283
52.46 0.0376516
52.655 -0.0096729
52.85 0.0875836
53.045 0.02433
53.24 0.118635
53.435 0.298032
53.63 0.0803193
53.825 -0.00201886
54.02 0.0250734
54.215 0.0234004
54.41 0.0690909
54.605 0.175088
54.8 0.0702597
54.995 -0.00505862
55.19 0.00689195
55.385 0.0604261
55.58 0.380046
55.775 0.262503
55.97 0.109467
56.165 0.000370453
56.36 0.00793465
56.555 0.00162842
56.75 0.00358953
56.945 0.0105366
57.14 -0.0137958
57.335 0.00719518
57.53 0.00393253
57.725 0.00454591
57.92 0.00080459
58.115 0.00898995
58.31 0.00990904
58.505 0.0017277
58.7 0.0111646
58.895 0.00663909
59.09 -0.00762319
59.285 -0.00564957
59.48 0.0276164
59.675 0.178957
59.87 0.0464364
60.065 0.0131963
60.26 0.0266409
60.455 0.086277
60.65 0.118605
60.845 0.0570561
61.04 0.016
61.235 0.0111852
61.43 0.0215516
61.625 0.0362234
61.82 0.238686
62.015 0.230611
62.21 0.354727
62.405 0.157961
62.6 0.0085511
62.795 -0.0058633
62.99 0.00216445
63.185 0.00793007
63.38 0.0224381
63.575 0.0483704
63.77 0.0804865
63.965 0.0375987
64.16 -0.00051383
64.355 0.0244156
64.55 0.0884278
64.745 0.107483
64.94 0.0210743
65.135 0.0122189
65.33 -0.00468057
65.525 -0.00551421
65.72 -0.00785541
65.915 0.0165002
66.11 0.0379407
66.305 0.0391289
66.5 0.0528995
66.695 0.104411
66.89 0.043098
67.085 0.00639688
67.28 -0.000998374
67.475 -0.0121823
67.67 0.00876569
67.865 0.00355767
68.06 0.0388001
68.255 0.114731
68.45 0.395363
68.645 0.0461388
68.84 0.0780892
69.035 0.0814229
69.23 0.0732785
69.425 0.0239091
69.62 0.0182541
69.815 -0.00156632
70.01 0.0184952
70.205 0.0388484
70.4 0.188193
70.595 0.0838796
70.79 0.0553564
70.985 0.0128436
71.095 -0.0154914

File: 2019-09-12T19_45_57.603044+00_00_LBL_C11.xy
'Id: "" Comment: "Integrate frame piperidinium_03_001.gfrmwith cursor Wedge Cursor #3" Operator: "UC Berkeley" Anode: "Co" Scantype: "TwoTheta" TimePerStep: "600"
14.175 -0.0258973
14.36 -0.00840308
14.545 0.0305478
14.73 0.0453737
14.915 -0.00363183
15.1 0.033757
15.285 0.0272937
15.47 -0.0120718
15.655 0.0691942
15.84 -0.00262826
16.025 0.0707028
16.21 0.0802819
16.395 0.0462072
16.58 0.0209911
16.765 0.105364
16.95 0.0969127
17.135 0.0751559
17.32 0.0393965
17.505 -0.0204668
17.69 0.0335856
17.875 -0.00313783
18.06 0.00793702
18.245 0.0605367
18.43 0.0101519
18.615 0.0254568
18.8 0.0605146
18.985 0.0830005
19.17 0.00874215
19.355 0.013804
19.54 0.000212563
19.725 0.0900206
19.91 0.0391542
20.095 0.0276329
20.28 0.0162847
20.465 0.0291489
20.65 0.0402431
20.835 0.00270377
21.02 0.0204507
21.205 0.079878
21.39 0.0319744
21.575 0.0104765
21.76 0.0167813
21.945 0.0495857
22.13 0.0393418
22.315 0.00466083
22.5 0.00856148
22.685 0.00613351
22.87 0.063468
23.055 -0.00934787
23.24 0.00314935
23.425 0.00948519
23.61 0.0657508
23.795 0.0493626
23.98 0.00202906
24.165 0.254186
24.35 0.898108
24.535 0.0260022
24.72 0.194929
24.905 0.277787
25.09 1.04893
25.275 0.994694
25.46 0.0785023
25.645 0.0590965
25.83 0.265562
26.015 0.393616
26.2 1.57295
26.385 0.931476
26.57 0.0869835
26.755 -0.00893516
26.94 0.109411
27.125 0.159604
27.31 0.0405902
27.495 0.998632
27.68 0.367961
27.865 0.0162643
28.05 0.074111
28.235 0.190214
28.42 0.543049
28.605 0.117908
28.79 0.137538
28.975 0.0164666
29.16 0.0301845
29.345 0.0160025
29.53 -0.0114688
29.715 0.113641
29.9 0.0551017
30.085 0.0568251
30.27 0.00547643
30.455 0.0715274
30.64 0.0187101
30.825 -0.0136584
31.01 0.106538
31.195 0.252494
31.38 0.461252
31.565 0.0542168
31.75 0.0214605
31.935 0.236408
32.12 0.021461
32.305 0.0616631
32.49 0.811973
32.675 1.47991
32.86 0.360056
33.045 0.643968
33.23 0.515274
33.415 1.72051
33.6 0.805731
33.785 0.109538
33.97 0.144316
34.155 0.17063
34.34 0.413775
34.525 0.745871
34.71 0.142441
34.895 -0.0100337
35.08 0.0396971
35.265 0.206072
35.45 0.215273
35.635 0.173923
35.82 0.0129871
36.005 0.0498561
36.19 0.00758113
36.375 0.0356049
36.56 0.0114922
36.745 0.0722025
36.93 0.107369
37.115 0.101886
37.3 0.0401221
37.485 0.0332053
37.67 0.0443676
37.855 -0.019366
38.04 -0.00918196
38.225 -0.0128845
38.41 0.00529089
38.595 0.0503973
38.78 0.177118
38.965 0.109087
39.15 0.0907933
39.335 0.0914634
39.52 0.0614152
39.705 0.113289
39.89 0.137745
40.075 0.0959335
40.26 0.117993
40.445 0.0352665
40.63 0.028863
40.815 0.299165
41 0.425923
41.185 0.27662
41.37 0.0258939
41.555 0.0265996
41.74 0.152683
41.925 0.305144
42.11 0.40337
42.295 0.0465285
42.48 0.00205389
42.665 0.00295007
42.85 0.185007
43.035 0.366201
43.22 0.188142
43.405 0.0714164
43.59 0.0649547
43.775 -0.000871119
43.96 0.0138728
44.145 0.000684936
44.33 0.0534013
44.515 0.178511
44.7 0.149271
44.885 0.145747
45.07 0.025173
45.255 0.0852491
45.44 0.201876
45.625 0.283374
45.81 0.212942
45.995 0.0817625
46.18 0.146461
46.365 0.198052
46.55 0.122582
46.735 0.391767
46.92 0.339576
47.105 0.144137
47.29 0.101766
47.475 0.0733934
47.66 0.00525767
47.845 -0.0139996
48.03 0.0122079
48.215 0.0579789
48.4 0.035597
48.585 0.124687
48.77 0.111413
48.955 0.0440331
49.14 0.00963407
49.325 -0.00941587
49.51 -0.010396
49.695 0.00518761
49.88 0.00986221
50.065 0.0164425
50.25 -0.0111101
50.435 0.0480269
50.62 0.0504038
50.805 0.036669
50.99 -0.00731981
51.175 0.00810056
51.36 0.0404832
51.545 0.071347
51.73 0.0057856
51.915 0.0195016
52.1 0.0567164
52.285 0.0556889
52.47 -0.00273405
52.655 -0.0109172
52.84 0.024373
53.025 0.105552
53.21 0.196223
53.395 0.145359
53.58 0.0354089
53.765 0.0509193
53.95 0.034546
54.135 0.0210105
54.32 -0.00313117
54.505 0.00179741
54.69 -0.0095711
54.875 -0.0129466
55.06 0.00631097
55.245 0.0501906
55.43 0.150731
55.615 0.122371
55.8 0.0386315
55.985 0.0485415
56.17 0.0457043
56.355 0.0288568
56.54 0.0191317
56.725 0.0320877
56.91 0.042055
57.095 0.0895695
57.28 0.0458851
57.465 0.0140187
57.65 -0.0165149
57.835 -0.0134198
58.02 0.0117703
58.205 0.0019178
58.39 0.0306304
58.575 0.0409846
58.76 0.0509225
58.945 0.0365915
59.13 -0.000286609
59.315 -0.00681032
59.5 0.00345825
59.685 0.026909
59.87 0.0319303
60.055 0.00753507
60.24 -0.00649266
60.425 0.00890154
60.61 0.0555166
60.795 0.056307
60.98 0.0506763
61.165 0.0152797
61.35 0.00674452
61.535 0.0198211
61.72 -0.00294342
61.905 -0.00239089
62.09 -0.0115462
62.275 -0.000261038
62.46 -0.00123835
62.645 0.00718806
62.83 -0.00121353
63.015 0.0331948
63.2 0.0477273
63.385 0.00917389
63.57 0.000885686
63.755 0.00755037
63.94 0.0090733
64.125 0.00174153
64.31 0.0125098
64.495 -0.00127003
64.68 0.00549196
64.865 -0.00792491
65.05 -0.000321784
65.235 -0.00220974
65.42 0.0018867
65.605 0.0110853
65.79 0.0141725
65.975 -0.00545437
66.16 0.00982631
66.345 0.00793489
66.53 -0.00136899
66.715 0.00511549
66.9 0.00991483
67.085 0.0302624
67.27 0.0541367
67.455 0.0724053
67.64 0.011845
67.825 -0.00463355
68.01 0.00291103
68.195 0.00788025
68.38 0.0152385
68.565 0.0381877
68.75 0.036437
68.935 0.0347099
69.12 -0.00663188
69.275 -0.0189139

File: 2019-09-12T19_45_57.603044+00_00_LBL_G2.xy
'Id: "" Comment: "Integrate frame piperidinium_02_001.gfrmwith cursor Wedge Cursor #2" Operator: "UC Berkeley" Anode: "Co" Scantype: "TwoTheta" TimePerStep: "600"
13.76 -0.0259228
13.955 0.0503376
14.15 0.0210718
14.345 0.0480429
14.54 0.00959033
14.735 0.0595739
14.93 0.0401176
15.125 0.0669982
15.32 0.0101609
15.515 0.0223997
15.71 0.0424269
15.905 0.0153612
16.1 0.022793
16.295 -0.0117321
16.49 0.0333578
16.685 0.00827009
16.88 0.060121
17.075 0.0285508
17.27 0.0828877
17.465 0.0215455
17.66 0.00715572
17.855 0.0466376
18.05 0.063739
18.245 0.0860448
18.44 0.00326869
18.635 0.0106714
18.83 0.0530433
19.025 0.0484243
19.22 0.0392272
19.415 -0.00652563
19.61 0.0424691
19.805 0.069897
20 0.0396584
20.195 0.0696371
20.39 0.285195
20.585 0.132662
20.78 0.0581907
20.975 0.0362207
21.17 0.0435929
21.365 0.0348118
21.56 0.016676
21.755 0.0419033
21.95 0.0703696
22.145 0.0273099
22.34 0.104291
22.535 0.0259777
22.73 -0.0149028
22.925 0.0496811
23.12 0.0286
23.315 -0.0171641
23.51 0.154054
23.705 0.704864
23.9 0.0269317
24.095 0.0586381
24.29 0.0489324
24.485 0.0578429
24.68 0.0436862
24.875 0.0186557
25.07 0.0120765
25.265 -0.0123126
25.46 0.0563763
25.655 0.0901846
25.85 0.0897553
26.045 0.0337374
26.24 0.0984809
26.435 0.0112456
26.63 0.00561524
26.825 0.0124853
27.02 -0.00130518
27.215 0.0148949
27.41 0.0295255
27.605 0.0122167
27.8 0.00597103
27.995 0.0211563
28.19 0.0179419
28.385 0.0250106
28.58 0.0529384
28.775 0.0329525
28.97 0.0568796
29.165 0.871693
29.36 0.117446
29.555 0.0383924
29.75 0.0400708
29.945 0.0158556
30.14 0.0282688
30.335 0.0596718
30.53 0.228186
30.725 0.0500467
30.92 0.0241411
31.115 0.00718388
31.31 0.00245676
31.505 0.000585648
31.7 0.0278335
31.895 -0.00714062
32.09 0.001145
32.285 0.0169315
32.48 9.57216e-05
32.675 0.101211
32.87 0.36687
33.065 0.0797309
33.26 0.0328472
33.455 0.00215424
33.65 0.00772871
33.845 0.00424521
34.04 0.0740691
34.235 0.00127276
34.43 0.0014629
34.625 -0.00873178
34.82 -0.0161695
35.015 0.129786
35.21 0.162104
35.405 0.0760932
35.6 0.00919524
35.795 -0.0079046
35.99 0.0857935
36.185 0.967804
36.38 1.42676
36.575 0.0943841
36.77 0.244083
36.965 0.14082
37.16 -0.00746057
37.355 0.00968842
37.55 -0.00208107
37.745 -0.0196398
37.94 0.000734911
38.135 -0.0122569
38.33 0.024506
38.525 0.0544613
38.72 0.0141533
38.915 -0.00600724
39.11 0.0109494
39.305 0.0194351
39.5 0.0339875
39.695 0.163292
39.89 0.338909
40.085 0.0876721
40.28 0.0178804
40.475 -0.00523596
40.67 -0.00117261
40.865 0.014599
41.06 0.0180699
41.255 0.0490386
41.45 0.389744
41.645 0.94591
41.84 0.487875
42.035 0.148256
42.23 0.0092918
42.425 -0.00749538
42.62 0.0108762
42.815 0.040219
43.01 0.00658606
43.205 -0.0155251
43.4 0.0333319
43.595 0.00527108
43.79 -0.0107303
43.985 -0.00857762
44.18 0.00112946
44.375 0.0129417
44.57 -0.00216849
44.765 -0.00529556
44.96 0.0207677
45.155 0.00553935
45.35 -0.0124779
45.545 0.0103511
45.74 0.0203339
45.935 0.0357513
46.13 0.290273
46.325 0.167075
46.52 0.0283872
46.715 0.00811624
46.91 -0.0185876
47.105 0.0305055
47.3 0.0537261
47.495 0.00840088
47.69 0.06949
47.885 0.191781
48.08 0.28689
48.275 0.695518
48.47 1.40415
48.665 0.817549
48.86 0.0424786
49.055 0.0132508
49.25 0.0227061
49.445 0.0447477
49.64 0.181331
49.835 1.25595
50.03 0.908978
50.225 0.0639965
50.42 0.0072982
50.615 -0.00875041
50.81 -0.0160452
51.005 -0.000418782
51.2 -0.0198528
51.395 0.028164
51.59 0.0779517
51.785 0.307819
51.98 0.670114
52.175 1.77554
52.37 0.125588
52.565 0.00223593
52.76 -0.00796908
52.955 -0.00501251
53.15 0.00228898
53.345 0.0633039
53.54 0.0264608
53.735 -0.0209146
53.93 0.0293516
54.125 0.0392119
54.32 0.0144454
54.515 0.186865
54.71 0.122294
54.905 0.0065417
55.1 0.018907
55.295 0.0254581
55.49 0.129299
55.685 0.537371
55.88 0.245162
56.075 0.0267935
56.27 0.0113626
56.465 -0.0141475
56.66 -0.0160122
56.855 -0.00496608
57.05 -0.00994563
57.245 0.00839224
57.44 0.00474007
57.635 0.0251489
57.83 -0.0061392
58.025 -0.00142613
58.22 -0.00843998
58.415 -0.00482624
58.61 0.00662632
58.805 0.00275615
59 -0.0013516
59.195 -0.00366199
59.39 0.0649083
59.585 0.0509224
59.78 0.0767414
59.975 0.0244987
60.17 0.0068161
60.365 0.0528285
60.56 0.107225
60.755 0.0772874
60.95 0.00666929
61.145 -0.00301316
61.34 0.00687524
61.535 0.0130789
61.73 0.0670777
61.925 0.221901
62.12 0.440681
62.315 0.0948859
62.51 0.0121934
62.705 0.0198368
62.9 0.00398464
63.095 -0.00244567
63.29 0.0169933
63.485 0.0264088
63.68 0.0302862
63.875 0.00810342
64.07 0.00375523
64.265 0.189609
64.46 0.188979
64.655 0.0330308
64.85 0.00143198
65.045 0.00340038
65.24 0.048974
65.435 0.00569866
65.63 -0.0131839
65.825 0.027584
66.02 0.0280379
66.215 0.0435544
66.41 0.0412528
66.605 0.0598555
66.8 0.0513085
66.995 0.010416
67.19 -0.000139454
67.385 0.00425065
67.58 -0.00393059
67.775 0.0102761
67.97 0.0319881
68.165 0.0213715
68.36 0.0294487
68.555 0.0104026
68.75 -0.00586192
68.945 0.0251544
69.14 0.00522738
69.335 0.0414838
69.53 -0.0101759
69.725 0.00425766
69.92 -0.00607739
70.115 0.00629925
70.31 0.065327
70.505 0.186655
70.7 0.204386
70.895 0.0218113
71.09 -0.000885911
71.255 -0.0169415

File: 2019-09-18T20_27_33.741387+00_00_LBL_H1.xy
'Id: "" Comment: "Integrate frame butane14dia1_00_003.gfrmwith cursor Wedge Cursor #1" Operator: "UC Berkeley" Anode: "Co" Scantype: "TwoTheta" TimePerStep: "600"
13.73 -0.0251194
13.92 0.0589643
14.11 0.0339752
14.3 -0.00880391
14.49 0.0648893
14.68 0.0702159
14.87 0.0152655
15.06 0.0584653
15.25 0.0551959
15.44 0.0557526
15.63 0.00676539
15.82 0.0383638
16.01 0.0182086
16.2 0.0461243
16.39 0.0189746
16.58 0.0117244
16.77 0.207248
16.96 0.199659
17.15 0.164096
17.34 0.0245405
17.53 0.0351652
17.72 0.015934
17.91 0.038801
18.1 0.0773481
18.29 1.12136
18.48 1.22712
18.67 0.111689
18.86 0.00835779
19.05 0.058929
19.24 0.0682481
19.43 0.109299
19.62 0.100313
19.81 -0.00399934
20 0.0152909
20.19 -0.00452208
20.38 0.0241691
20.57 0.0180714
20.76 0.047841
20.95 0.0218465
21.14 0.0112532
21.33 0.0341692
21.52 0.0249763
21.71 0.0312562
21.9 0.0212383
22.09 0.00969769
22.28 0.0481982
22.47 0.0266801
22.66 0.0267353
22.85 0.0236878
23.04 0.0204322
23.23 0.029677
23.42 0.0627585
23.61 0.282164
23.8 0.225931
23.99 0.0684441
24.18 0.095565
24.37 0.359459
24.56 5.47269
24.75 3.06056
24.94 0.148681
25.13 0.0525331
25.32 0.0126432
25.51 0.0042775
25.7 0.013657
25.89 0.00547522
26.08 0.0195926
26.27 0.0158628
26.46 0.0561905
26.65 0.137342
26.84 0.185701
27.03 0.0649928
27.22 0.0286764
27.41 0.0565174
27.6 0.108281
27.79 0.123441
27.98 0.0653988
28.17 0.0598675
28.36 0.112628
28.55 0.095153
28.74 -0.00131533
28.93 0.0237454
29.12 0.0276355
29.31 0.00339752
29.5 0.0276833
29.69 0.0620008
29.88 0.0539163
30.07 0.156723
30.26 0.178413
30.45 0.231971
30.64 0.67977
30.83 8.28823
31.02 13.0466
31.21 0.669804
31.4 0.248875
31.59 0.18125
31.78 0.481635
31.97 0.140305
32.16 0.0276015
32.35 0.0056402
32.54 0.0165423
32.73 0.0108312
32.92 0.0230127
33.11 0.0827395
33.3 0.352898
33.49 0.298388
33.68 0.574147
33.87 0.503628
34.06 0.297107
34.25 0.0664684
34.44 0.0526516
34.63 0.134396
34.82 0.0202924
35.01 0.00681574
35.2 -0.0042311
35.39 0.033628
35.58 6.29037e-05
35.77 0.0124197
35.96 -0.00621258
36.15 -0.0103121
36.34 -0.00661752
36.53 0.01735
36.72 0.0817735
36.91 0.21856
37.1 1.1837
37.29 6.40488
37.48 3.06618
37.67 0.513578
37.86 0.690628
38.05 0.53959
38.24 0.351058
38.43 0.228675
38.62 0.161669
38.81 0.249657
39 0.527519
39.19 0.355312
39.38 0.146134
39.57 0.0642055
39.76 0.054824
39.95 0.0178229
40.14 -0.00766952
40.33 -0.00435807
40.52 -0.000194162
40.71 0.0284825
40.9 0.0774798
41.09 0.0944299
41.28 0.0409591
41.47 0.0236891
41.66 -0.000528427
41.85 0.0185345
42.04 -0.00677446
42.23 0.0215373
42.42 -0.000217473
42.61 0.0285251
42.8 0.0111268
42.99 0.0708045
43.18 0.175145
43.37 0.213265
43.56 0.212117
43.75 0.711087
43.94 0.666367
44.13 0.0640066
44.32 0.0264064
44.51 0.0363125
44.7 0.0574498
44.89 0.0945211
45.08 0.163486
45.27 0.10247
45.46 0.0149985
45.65 -0.00121004
45.84 0.0144542
46.03 0.00934184
46.22 0.0159583
46.41 0.00855619
46.6 -0.0101514
46.79 0.0153202
46.98 0.0288409
47.17 0.0393019
47.36 0.0481643
47.55 0.126275
47.74 0.188515
47.93 0.1036
48.12 0.044999
48.31 0.0405955
48.5 0.0463467
48.69 0.0141221
48.88 0.00931096
49.07 -0.00174825
49.26 0.0365597
49.45 0.0674784
49.64 0.115054
49.83 0.199341
50.02 0.211438
50.21 0.119934
50.4 0.0843178
50.59 0.0316232
50.78 0.0320289
50.97 0.0579559
51.16 0.0644012
51.35 0.0468869
51.54 0.00245516
51.73 -0.0113518
51.92 -0.00488542
52.11 0.0205745
52.3 0.0805447
52.49 0.14232
52.68 0.125204
52.87 0.0511306
53.06 -0.00414125
53.25 0.00381167
53.44 -0.00382727
53.63 0.0264312
53.82 0.0111112
54.01 0.0152373
54.2 0.000916573
54.39 0.0459904
54.58 0.119289
54.77 0.146739
54.96 0.0581691
55.15 0.0308849
55.34 -0.0010709
55.53 -0.0139035
55.72 0.00234648
55.91 0.0120046
56.1 0.0150814
56.29 0.0134469
56.48 0.0425303
56.67 0.0211325
56.86 0.00804276
57.05 0.0119543
57.24 0.0771987
57.43 0.121081
57.62 0.0605508
57.81 0.00800447
58 0.0195645
58.19 0.00791027
58.38 0.03951
58.57 0.046296
58.76 0.0286796
58.95 0.0357894
59.14 0.0138381
59.33 -0.00607342
59.52 0.00796082
59.71 0.0119711
59.9 0.0364357
60.09 0.0283069
60.28 0.028855
60.47 0.000305241
60.66 -0.00830855
60.85 -0.000457453
61.04 0.00242549
61.23 0.0171466
61.42 0.0171121
61.61 0.00478652
61.8 0.0061254
61.99 0.0037578
62.18 0.0308224
62.37 0.0498784
62.56 0.0708321
62.75 0.082958
62.94 0.054033
63.13 0.0229989
63.32 0.0196141
63.51 -0.00577557
63.7 -0.0139848
63.89 0.00922387
64.08 0.051999
64.27 0.108449
64.46 0.14666
64.65 0.160526
64.84 0.120152
65.03 0.0363557
65.22 -0.00278094
65.41 -0.00447474
65.6 0.0131835
65.79 0.0104372
65.98 0.0234421
66.17 0.0237072
66.36 0.0439352
66.55 0.0607934
66.74 0.0320962
66.93 0.0234394
67.12 0.00743357
67.31 0.000528615
67.5 -0.00555051
67.69 0.0135935
67.88 -0.000677589
68.07 -0.00919204
68.26 0.0125567
68.45 0.00185938
68.64 -0.00166809
68.83 -4.85642e-05
69.02 0.00420454
69.21 0.00831246
69.4 0.0604585
69.59 0.067652
69.78 0.0916982
69.97 0.0628313
70.16 0.0117819
70.27 -0.0185105

File: 2019-09-24T15_41_07.555823+00_00_LBL_B5.xy
'Id: "" Comment: "Integrate frame butane14dia_01_001.gfrmwith cursor Wedge Cursor #1" Operator: "UC Berkeley" Anode: "Co" Scantype: "TwoTheta" TimePerStep: "600"
13.655 -0.0252218
13.85 0.0085475
14.045 -0.00866366
14.24 0.018308
14.435 0.0976903
14.63 0.0343322
14.825 0.0666091
15.02 0.0265659
15.215 0.0190353
15.41 0.0236768
15.605 0.0206353
15.8 0.0703868
15.995 0.0669712
16.19 0.0261563
16.385 0.0362078
16.58 0.0108102
16.775 0.0434034
16.97 0.023564
17.165 0.0339695
17.36 0.0630355
17.555 0.0398696
17.75 0.0437385
17.945 0.0359878
18.14 0.0068155
18.335 0.0553681
18.53 0.0299409
18.725 0.0447637
18.92 0.0222687
19.115 0.0515812
19.31 0.0364311
19.505 0.0293756
19.7 0.0277689
19.895 0.0293132
20.09 0.0443515
20.285 0.023911
20.48 0.0436052
20.675 0.0752134
20.87 0.0504901
21.065 0.201432
21.26 0.0379249
21.455 0.043692
21.65 0.0440882
21.845 0.00277626
22.04 0.0211725
22.235 0.0480214
22.43 0.0267794
22.625 -0.00892856
22.82 0.0168598
23.015 -0.00261619
23.21 0.00720944
23.405 0.0270572
23.6 0.00558952
23.795 -0.000204449
23.99 0.0460116
24.185 0.432665
24.38 -0.0106512
24.575 0.00578279
24.77 0.0428016
24.965 0.592472
25.16 0.0959425
25.355 0.0242785
25.55 0.0236965
25.745 0.000768465
25.94 0.0852137
26.135 0.667712
26.33 0.507199
26.525 1.29555
26.72 0.0453869
26.915 0.0192395
27.11 0.0119902
27.305 0.0171174
27.5 0.0169248
27.695 0.0253528
27.89 0.0129368
28.085 0.0357472
28.28 0.0339203
28.475 0.768624
28.67 0.360156
28.865 0.0618251
29.06 0.131507
29.255 0.0689589
29.45 0.0265289
29.645 0.00209891
29.84 0.0395092
30.035 0.048087
30.23 0.0318489
30.425 0.0819011
30.62 0.639344
30.815 0.132365
31.01 0.00169312
31.205 0.0150996
31.4 -0.00977235
31.595 0.0348899
31.79 0.0529672
31.985 0.0241143
32.18 0.00107845
32.375 0.230701
32.57 1.075
32.765 0.0857445
32.96 0.0189926
33.155 0.0195968
33.35 0.0791968
33.545 8.19763e-06
33.74 0.0217419
33.935 -0.00242303
34.13 0.0237418
34.325 0.0135313
34.52 0.131716
34.715 0.528434
34.91 0.438538
35.105 0.0228038
35.3 -0.00723692
35.495 0.0198718
35.69 0.049602
35.885 0.00685091
36.08 0.00542244
36.275 0.019002
36.47 0.0701307
36.665 0.285902
36.86 1.81927
37.055 0.218337
37.25 0.00644388
37.445 0.0309726
37.64 0.0158457
37.835 0.00418858
38.03 -0.00267413
38.225 0.0106419
38.42 0.023176
38.615 -0.0109141
38.81 -0.0104213
39.005 -0.0148926
39.2 0.00365795
39.395 0.0114351
39.59 0.371553
39.785 0.333421
39.98 0.00992279
40.175 0.014409
40.37 0.0828869
40.565 0.190845
40.76 0.0102884
40.955 0.00854625
41.15 0.0115509
41.345 0.0285824
41.54 0.289871
41.735 0.32449
41.93 0.0419713
42.125 0.0722222
42.32 0.75816
42.515 0.289326
42.71 0.0204248
42.905 0.036988
43.1 0.0223705
43.295 0.0165736
43.49 -0.00708615
43.685 0.0115302
43.88 0.0111309
44.075 0.02214
44.27 0.0235193
44.465 0.101098
44.66 0.186299
44.855 0.306373
45.05 0.518737
45.245 0.0750855
45.44 0.184226
45.635 0.137626
45.83 0.198699
46.025 0.322625
46.22 0.179933
46.415 0.0207626
46.61 -0.000252811
46.805 -0.0177105
47 0.0157746
47.195 -0.0110208
47.39 -0.000418021
47.585 0.0533623
47.78 0.119461
47.975 0.0608924
48.17 0.00607998
48.365 -0.00387724
48.56 0.0258117
48.755 0.0752214
48.95 0.0540397
49.145 0.0554192
49.34 0.265517
49.535 0.353625
49.73 0.11603
49.925 0.0354805
50.12 0.0347723
50.315 0.205693
50.51 0.29039
50.705 0.1514
50.9 0.0364509
51.095 0.0150416
51.29 0.0795748
51.485 0.00590926
51.68 0.00870815
51.875 0.00686189
52.07 -0.0141157
52.265 -0.00835854
52.46 -0.00321949
52.655 0.00300211
52.85 0.0454082
53.045 0.038732
53.24 0.0909015
53.435 0.311291
53.63 0.0594905
53.825 0.0622941
54.02 0.104876
54.215 0.489561
54.41 0.541846
54.605 0.0495583
54.8 -0.00388292
54.995 0.0508767
55.19 0.0533049
55.385 0.0359764
55.58 0.0368449
55.775 0.0344097
55.97 0.0269642
56.165 0.069021
56.36 0.834267
56.555 0.284468
56.75 0.104432
56.945 0.0594832
57.14 0.0226457
57.335 0.0212165
57.53 0.000988276
57.725 0.0176487
57.92 0.0403592
58.115 0.185031
58.31 0.450758
58.505 0.13336
58.7 0.0223124
58.895 0.0183059
59.09 0.0466342
59.285 0.0486714
59.48 0.064118
59.675 0.0123931
59.87 0.0205293
60.065 0.0206307
60.26 0.0140482
60.455 0.0262802
60.65 0.0494988
60.845 0.102802
61.04 0.138845
61.235 0.00731432
61.43 0.0017766
61.625 0.0152467
61.82 0.0349579
62.015 0.0626271
62.21 0.0786822
62.405 0.0270921
62.6 0.00455917
62.795 0.0148802
62.99 0.0028485
63.185 0.00709769
63.38 -0.00403467
63.575 0.0137358
63.77 0.00651696
63.965 0.00964723
64.16 0.0171991
64.355 0.0122582
64.55 0.0670576
64.745 0.0278503
64.94 -0.00184505
65.135 -0.000242721
65.33 -0.00117065
65.525 0.0129521
65.72 0.0518368
65.915 0.0785997
66.11 0.0542783
66.305 0.0361991
66.5 0.0786275
66.695 0.130697
66.89 0.120686
67.085 0.0570397
67.28 0.0183664
67.475 0.0297848
67.67 0.0471246
67.865 0.0823449
68.06 0.147466
68.255 0.20988
68.45 0.185309
68.645 0.115778
68.84 0.0238107
69.035 0.0117982
69.23 0.0124022
69.425 0.026242
69.62 0.0133501
69.815 0.0065455
70.01 0.038414
70.205 0.102948
70.4 0.125853
70.595 0.0689476
70.79 0.0850122
70.985 0.207708
71.18 0.211791
71.375 0.0399454
71.57 -0.00520675
71.765 0.00536959
71.96 -0.0144411
72.04 -0.0160724