Folder: rapid/data/xrd/xy (part 13)

File: 2019-06-21T14_37_13.758897+00_00_LBL_F3.xy
'Id: "" Comment: "Integrate frame perovskite_05_001.gfrmwith cursor Wedge Cursor #5" Operator: "UC Berkeley" Anode: "Co" Scantype: "TwoTheta" TimePerStep: "400"
13.77 -0.0316857
13.97 0.0898141
14.17 0.0242377
14.37 0.106307
14.57 0.105445
14.77 0.0196945
14.97 0.0403003
15.17 0.0259121
15.37 0.0380856
15.57 0.0477418
15.77 0.00364616
15.97 0.0980224
16.17 0.00598522
16.37 0.0239259
16.57 0.0138434
16.77 0.0200294
16.97 0.00135092
17.17 -0.0112644
17.37 0.0444556
17.57 0.0811023
17.77 0.0587779
17.97 0.0470569
18.17 0.0676943
18.37 0.049433
18.57 0.0226988
18.77 0.0575483
18.97 0.00366357
19.17 0.0397071
19.37 -0.0258691
19.57 0.025394
19.77 0.00743105
19.97 0.0445542
20.17 0.0944395
20.37 0.036019
20.57 0.000981458
20.77 0.0106616
20.97 0.0408922
21.17 0.0492642
21.37 0.0299278
21.57 -0.013287
21.77 0.0436489
21.97 0.0857376
22.17 0.0141947
22.37 0.0435032
22.57 0.0253485
22.77 0.0161113
22.97 0.0113304
23.17 0.032264
23.37 0.0390694
23.57 0.044099
23.77 0.0328464
23.97 0.0635593
24.17 -0.00705004
24.37 0.0288845
24.57 0.0127507
24.77 0.0211186
24.97 0.0396987
25.17 0.0342793
25.37 0.042124
25.57 0.0478464
25.77 0.00010609
25.97 0.0216973
26.17 -0.0103367
26.37 0.0551788
26.57 0.0379591
26.77 0.00961211
26.97 0.0205409
27.17 0.0194882
27.37 0.0354732
27.57 0.0290256
27.77 0.0471231
27.97 0.0619963
28.17 0.0611467
28.37 0.0209147
28.57 0.056745
28.77 0.125911
28.97 -0.00231622
29.17 0.0309327
29.37 0.0325635
29.57 0.00836875
29.77 0.0111861
29.97 0.465965
30.17 0.904516
30.37 0.065179
30.57 -0.00895134
30.77 0.00826761
30.97 0.000557613
31.17 -0.0136912
31.37 0.00623311
31.57 -2.1828e-05
31.77 0.039548
31.97 0.0231453
32.17 -0.00348289
32.37 0.0207939
32.57 0.0110757
32.77 0.0148596
32.97 0.0385502
33.17 0.00190805
33.37 0.0238874
33.57 0.0258114
33.77 6.48539e-05
33.97 0.00281967
34.17 0.00518427
34.37 0.00893197
34.57 0.0743604
34.77 1.19133
34.97 0.14
35.17 -0.00121265
35.37 -0.0217887
35.57 -0.00159277
35.77 -0.011487
35.97 0.0443786
36.17 0.349173
36.37 1.6208
36.57 0.128738
36.77 0.00832429
36.97 0.00518161
37.17 0.0136208
37.37 0.272477
37.57 0.369806
37.77 0.0133026
37.97 0.00366255
38.17 0.0235483
38.37 0.0384337
38.57 0.290033
38.77 0.0390957
38.97 0.0127789
39.17 -0.00739072
39.37 0.00122524
39.57 0.0214341
39.77 -0.00360613
39.97 0.0108268
40.17 0.0272238
40.37 0.00618016
40.57 0.00268767
40.77 0.0191177
40.97 0.0176144
41.17 0.032663
41.37 0.564117
41.57 0.164477
41.77 0.0466697
41.97 -0.0141582
42.17 0.0123827
42.37 0.00769415
42.57 0.0222555
42.77 0.0117215
42.97 0.0335037
43.17 -0.00508576
43.37 0.0190665
43.57 0.0151574
43.77 -0.0123557
43.97 0.0220155
44.17 0.0343831
44.37 0.00548188
44.57 0.00191241
44.77 0.299212
44.97 0.0554724
45.17 -0.0146808
45.37 -0.00025068
45.57 0.0225256
45.77 -0.0142896
45.97 -0.018589
46.17 -0.0100001
46.37 0.00143996
46.57 0.0360105
46.77 0.0317785
46.97 0.00272118
47.17 0.00216562
47.37 0.034595
47.57 0.1518
47.77 0.131113
47.97 0.252825
48.17 3.54354
48.37 1.10477
48.57 0.0681527
48.77 0.0266704
48.97 0.0962227
49.17 0.380966
49.37 0.0209665
49.57 0.00366648
49.77 0.0207778
49.97 0.0481499
50.17 0.764305
50.37 1.1799
50.57 0.0926949
50.77 0.00609685
50.97 0.0120495
51.17 0.00922573
51.37 -0.000174147
51.57 -0.00687232
51.77 0.180858
51.97 0.182817
52.17 0.106179
52.37 0.015605
52.57 -0.00683125
52.77 0.00638418
52.97 0.00125384
53.17 -0.017647
53.37 0.0054753
53.57 0.0127454
53.77 0.0719516
53.97 0.0587132
54.17 -0.00836044
54.37 0.0132291
54.57 0.00483262
54.77 -0.00466817
54.97 -0.0102251
55.17 0.0553061
55.37 0.0270188
55.57 0.0143869
55.77 0.00615545
55.97 0.0120736
56.17 -0.00780614
56.37 -0.000550069
56.57 -0.00499909
56.77 0.00605419
56.97 0.0746011
57.17 0.0869452
57.37 0.0180885
57.57 0.0098755
57.77 0.506296
57.97 0.778253
58.17 0.0247032
58.37 0.0143484
58.57 0.0251846
58.77 0.0224596
58.97 0.0214496
59.17 -0.00463735
59.37 -0.00284455
59.57 -0.0104852
59.77 -4.4779e-05
59.97 0.0114983
60.17 0.022337
60.37 -0.0145391
60.57 0.0103908
60.77 -0.00329431
60.97 0.011125
61.17 0.0108754
61.37 -0.00319562
61.57 0.0349917
61.77 0.475908
61.97 0.288158
62.17 -0.00224757
62.37 0.035812
62.57 0.330394
62.77 0.21802
62.97 0.00570997
63.17 0.00573726
63.37 0.044831
63.57 -0.0182896
63.77 -0.0143814
63.97 0.0104604
64.17 -0.00295313
64.37 0.00485925
64.57 0.00561278
64.77 0.0379792
64.97 0.0880693
65.17 0.0333097
65.37 0.0581077
65.57 0.0242355
65.77 -0.00577431
65.97 0.00414442
66.17 -0.00948367
66.37 0.0224568
66.57 0.0104007
66.77 0.0103467
66.97 0.014277
67.17 -0.0097341
67.37 -0.00765793
67.57 0.0167405
67.77 0.0691636
67.97 0.10483
68.17 0.0216617
68.37 0.00678092
68.57 0.00943886
68.77 0.00119512
68.97 -0.00065966
69.17 0.0137778
69.37 0.0142002
69.57 0.00351314
69.77 0.0168826
69.97 0.0322459
70.17 0.0311551
70.37 0.0243447
70.57 0.0157119
70.77 0.0104029
70.97 0.0199607
71.17 0.327869
71.37 0.413972
71.57 0.135526
71.77 0.0137596
71.97 0.0152027
72.17 0.0369923
72.37 0.047306
72.57 0.00181428
72.77 -0.0142686
72.97 0.00237973
73.17 -0.00219505
73.3 -0.0189622

File: 2019-06-27T12_52_20.503028+00_00_LBL_A7.xy
'Id: "" Comment: "Integrate frame 4_methoxyph_I_Fa_Br_01_002.gfrmwith cursor Wedge Cursor #1" Operator: "UC Berkeley" Anode: "Co" Scantype: "TwoTheta" TimePerStep: "400"
24.46 -0.0311406
24.63 0.000136197
24.8 -0.00306768
24.97 0.0697499
25.14 0.0802232
25.31 0.0735448
25.48 0.0247547
25.65 0.0704445
25.82 0.0386584
25.99 0.055377
26.16 0.0662967
26.33 0.0943597
26.5 0.0545533
26.67 0.0414051
26.84 0.0253767
27.01 0.0732787
27.18 0.0682195
27.35 0.0673027
27.52 0.0158849
27.69 0.0896937
27.86 0.095819
28.03 0.0699439
28.2 0.0607439
28.37 0.0643376
28.54 0.105766
28.71 0.0598762
28.88 0.0171004
29.05 0.0204445
29.22 0.0122476
29.39 0.0516692
29.56 0.0750194
29.73 0.0943372
29.9 0.121001
30.07 1.02489
30.24 2.03147
30.41 0.195531
30.58 0.141172
30.75 0.0465417
30.92 0.0701778
31.09 0.0802335
31.26 0.0449471
31.43 0.081089
31.6 0.0569534
31.77 0.0372768
31.94 0.0169456
32.11 0.0128995
32.28 0.00328518
32.45 0.0591442
32.62 0.0327063
32.79 0.0600197
32.96 0.127293
33.13 0.0717006
33.3 0.0505162
33.47 0.0655994
33.64 0.0294036
33.81 0.0156676
33.98 0.0502293
34.15 0.0636439
34.32 0.0448776
34.49 -0.00174014
34.66 0.0656334
34.83 0.0124726
35 0.0261613
35.17 0.0210134
35.34 0.0158942
35.51 0.00960629
35.68 0.0305279
35.85 0.0187554
36.02 0.0386641
36.19 0.0277672
36.36 0.0456944
36.53 0.0147622
36.7 0.0305237
36.87 0.0124454
37.04 0.0147305
37.21 0.0208032
37.38 0.026815
37.55 -0.00791519
37.72 -0.00551531
37.89 -0.00145343
38.06 0.030524
38.23 0.00765062
38.4 -0.0230426
38.57 -7.48623e-05
38.74 0.00330634
38.91 0.00292186
39.08 -0.000390991
39.25 0.0264449
39.42 0.00808508
39.59 0.019777
39.76 0.136094
39.93 1.32938
40.1 1.65705
40.27 0.220884
40.44 0.0298539
40.61 0.0189185
40.78 0.0155535
40.95 -0.0126831
41.12 -0.00304609
41.29 0.00104234
41.46 0.0321438
41.63 0.00213091
41.8 0.0261599
41.97 0.0224715
42.14 0.0510781
42.31 0.0101684
42.48 0.0199524
42.65 -0.00147959
42.82 0.0222538
42.99 -0.011284
43.16 0.0347636
43.33 -0.0216574
43.5 0.0214617
43.67 0.0500738
43.84 0.022841
44.01 0.0286814
44.18 0.0156262
44.35 0.00673518
44.52 0.020394
44.69 0.02445
44.86 0.0222965
45.03 0.0785423
45.2 0.279522
45.37 0.166673
45.54 0.0446624
45.71 0.0492774
45.88 0.0685911
46.05 0.340055
46.22 1.82884
46.39 0.836574
46.56 0.0675027
46.73 0.0187713
46.9 -0.00581602
47.07 0.0253727
47.24 0.00993791
47.41 0.0373803
47.58 0.00796373
47.75 0.0315867
47.92 0.0130594
48.09 0.012127
48.26 0.0355542
48.43 0.0322023
48.6 0.112914
48.77 0.408195
48.94 0.189774
49.11 0.0418463
49.28 0.0153899
49.45 0.0191267
49.62 0.00127483
49.79 0.0279655
49.96 0.0140052
50.13 0.00963081
50.3 0.00720126
50.47 0.0297571
50.64 0.0274307
50.81 0.0209525
50.98 0.0176662
51.15 0.0215137
51.32 0.000382389
51.49 -0.0138681
51.66 0.0177205
51.83 0.00310369
52 -0.00934425
52.17 0.0308084
52.34 -0.0142487
52.51 0.0150056
52.68 0.041806
52.85 0.217191
53.02 0.573886
53.19 0.290625
53.36 0.0477308
53.53 0.0291386
53.7 0.0300463
53.87 0.0391332
54.04 0.0320954
54.21 0.00366497
54.38 0.0401292
54.55 0.0121095
54.72 0.00397005
54.89 0.00719012
55.06 0.00569694
55.23 0.00690039
55.4 0.0308355
55.57 0.0148965
55.74 0.0274879
55.91 0.0982981
56.08 0.438252
56.25 0.637355
56.42 0.256803
56.59 0.0369451
56.76 -0.000476218
56.93 0.00868776
57.1 0.0307869
57.27 0.0424417
57.44 -0.0104211
57.61 0.00803729
57.78 0.0139215
57.95 0.0158457
58.12 0.0488754
58.29 0.0202372
58.46 0.000491907
58.63 0.0254598
58.8 0.00920036
58.97 0.033584
59.14 0.00403739
59.31 0.0101036
59.48 0.00332012
59.65 0.019207
59.82 0.0327072
59.99 0.0184163
60.16 0.043403
60.33 0.0355294
60.5 -0.00248578
60.67 0.0282928
60.84 -0.00786641
61.01 0.0288844
61.18 0.0151365
61.35 0.0200742
61.52 0.100189
61.69 0.215555
61.86 0.106733
62.03 0.0234132
62.2 0.0150557
62.37 0.0192243
62.54 0.0859762
62.71 0.495635
62.88 0.430027
63.05 0.154776
63.22 0.0393785
63.39 0.00395667
63.56 0.0165893
63.73 0.00267087
63.9 0.00721951
64.07 0.00821951
64.24 0.0269644
64.41 0.00247886
64.58 0.0184878
64.75 -0.0109144
64.92 0.015038
65.09 0.0102445
65.26 0.0188254
65.43 0.00593296
65.6 0.0221979
65.77 0.0270279
65.94 0.00629115
66.11 0.00164382
66.28 0.00988444
66.45 0.0940173
66.62 0.290802
66.79 0.279282
66.96 0.0897498
67.13 0.0239511
67.3 0.0241841
67.47 0.000194903
67.64 0.00529355
67.81 -0.0147144
67.98 0.0038219
68.15 0.0488479
68.32 0.0564979
68.49 0.0404727
68.66 0.00876427
68.83 0.0147057
69 0.0333798
69.17 0.0103613
69.34 0.0105056
69.51 0.0122209
69.68 0.00534025
69.85 0.0229573
70.02 0.00932589
70.19 -0.00283021
70.36 0.031887
70.53 0.0225747
70.7 -0.0148452
70.87 0.00755927
71.04 0.0148211
71.21 0.0123428
71.38 0.0254515
71.55 0.00912937
71.72 0.00253668
71.89 0.0161015
72.06 0.0359166
72.23 0.0165399
72.4 0.0142548
72.57 0.0100018
72.74 0.0853056
72.91 0.136869
73.08 0.13671
73.25 0.0624554
73.42 0.0168958
73.59 0.0068117
73.76 0.00194357
73.93 0.0289475
74.1 0.0142996
74.27 -0.00438747
74.44 0.0074439
74.61 0.00183018
74.65 -0.0159678

File: 2019-06-27T12_52_20.503028+00_00_LBL_A8.xy
'Id: "" Comment: "Integrate frame 4_methoxyph_I_Fa_Br_02_002.gfrmwith cursor Wedge Cursor #1" Operator: "UC Berkeley" Anode: "Co" Scantype: "TwoTheta" TimePerStep: "400"
14.095 -0.0311239
14.295 0.00957241
14.495 0.0402269
14.695 0.122038
14.895 0.0615142
15.095 -0.00964759
15.295 0.0447459
15.495 -0.00378644
15.695 0.0584891
15.895 0.0583192
16.095 0.0485732
16.295 -0.0016961
16.495 0.0430925
16.695 0.0408951
16.895 0.0779442
17.095 0.0495176
17.295 0.0746794
17.495 -0.00803757
17.695 0.0455644
17.895 0.0716052
18.095 0.0468513
18.295 0.0246634
18.495 0.0299765
18.695 0.0934256
18.895 0.095808
19.095 0.019336
19.295 -0.0313388
19.495 0.0232309
19.695 0.0337663
19.895 0.12228
20.095 0.308055
20.295 0.395949
20.495 0.100289
20.695 0.0287503
20.895 0.110959
21.095 0.0846983
21.295 0.237795
21.495 0.0131077
21.695 -0.00326757
21.895 -0.0131437
22.095 0.0204927
22.295 -0.00699503
22.495 0.0732006
22.695 0.108851
22.895 0.0775725
23.095 0.0578357
23.295 0.16204
23.495 0.0673016
23.695 0.0709278
23.895 0.0593802
24.095 0.0460376
24.295 0.156722
24.495 0.130306
24.695 0.0160781
24.895 0.00559963
25.095 0.154312
25.295 1.70848
25.495 0.771079
25.695 0.243508
25.895 0.100827
26.095 0.253854
26.295 0.107715
26.495 0.0436965
26.695 -0.000775202
26.895 0.0151506
27.095 0.00491771
27.295 0.110552
27.495 0.0512746
27.695 0.206145
27.895 0.362724
28.095 4.14768
28.295 1.3213
28.495 0.254099
28.695 0.173956
28.895 0.163033
29.095 0.0641749
29.295 0.0621352
29.495 0.227997
29.695 0.088011
29.895 0.0675887
30.095 0.0692015
30.295 0.0958536
30.495 1.08603
30.695 0.347553
30.895 0.0445836
31.095 -0.00173721
31.295 0.019066
31.495 0.0416093
31.695 0.0211265
31.895 0.0246045
32.095 0.0118836
32.295 0.0026214
32.495 0.0365079
32.695 0.107299
32.895 0.532793
33.095 2.93196
33.295 0.637569
33.495 0.668505
33.695 0.587569
33.895 0.0344025
34.095 0.0403459
34.295 0.168843
34.495 0.0712875
34.695 -0.0268658
34.895 -0.00815022
35.095 -0.0159764
35.295 0.00262305
35.495 -0.00925789
35.695 0.0882733
35.895 0.0797304
36.095 0.0517514
36.295 0.0521434
36.495 0.00867281
36.695 0.0159166
36.895 0.0264066
37.095 0.0154183
37.295 -0.00485464
37.495 0.00268995
37.695 0.027665
37.895 0.191258
38.095 0.716227
38.295 0.134215
38.495 0.0746878
38.695 0.0587266
38.895 0.0632826
39.095 0.0241822
39.295 0.0552963
39.495 0.00318256
39.695 -0.00537738
39.895 0.0114864
40.095 0.0991578
40.295 -0.00687402
40.495 0.00360608
40.695 0.0553202
40.895 0.0118052
41.095 0.0265505
41.295 0.0915381
41.495 0.238213
41.695 0.0535799
41.895 -0.00223691
42.095 0.0412426
42.295 -0.0116607
42.495 0.0438573
42.695 0.0228598
42.895 0.0509174
43.095 0.00981796
43.295 0.0315054
43.495 -0.0138383
43.695 0.0322836
43.895 0.0805433
44.095 -0.015936
44.295 0.0161242
44.495 0.0333704
44.695 0.221843
44.895 0.105939
45.095 0.122273
45.295 0.0618853
45.495 0.0101674
45.695 0.104505
45.895 0.197044
46.095 0.158071
46.295 0.216134
46.495 0.261929
46.695 0.130747
46.895 0.0452523
47.095 0.0220297
47.295 0.012813
47.495 0.0036342
47.695 0.0120327
47.895 -0.0190769
48.095 -0.00315225
48.295 0.10895
48.495 0.102872
48.695 0.132927
48.895 0.116158
49.095 0.0955626
49.295 0.157494
49.495 0.0704483
49.695 0.0288359
49.895 0.0126694
50.095 -0.0147625
50.295 0.0168586
50.495 0.0935282
50.695 0.077971
50.895 0.0196504
51.095 0.0152768
51.295 0.0147406
51.495 -0.0281742
51.695 0.0158476
51.895 -0.0052171
52.095 0.0194433
52.295 0.111441
52.495 0.0525321
52.695 0.0212504
52.895 -0.00218623
53.095 -0.011203
53.295 0.0228598
53.495 0.0443774
53.695 0.0221404
53.895 -0.0172968
54.095 0.00390176
54.295 0.0185324
54.495 0.0554464
54.695 0.0450994
54.895 0.0168671
55.095 0.027855
55.295 0.0114473
55.495 0.0299777
55.695 0.0292592
55.895 0.00474565
56.095 0.0303583
56.295 0.0215594
56.495 0.0572452
56.695 0.0241958
56.895 0.0590804
57.095 0.0941073
57.295 0.0764486
57.495 0.0614682
57.695 0.0847189
57.895 0.0927803
58.095 0.0924162
58.295 0.0899474
58.495 0.0200995
58.695 0.0459992
58.895 0.0426935
59.095 0.0168869
59.295 0.00881699
59.495 -0.0259618
59.695 0.0289737
59.895 0.0471707
60.095 0.0565342
60.295 0.0488208
60.495 0.0302902
60.695 0.00385778
60.895 0.0175429
61.095 -0.00451918
61.295 0.0132184
61.495 0.0150659
61.695 0.0299302
61.895 0.0250275
62.095 0.000148435
62.295 0.00363808
62.495 0.0119712
62.695 0.0207523
62.895 -0.0142574
63.095 0.0306265
63.295 0.000636425
63.495 0.088735
63.695 0.0691974
63.895 0.105887
64.095 0.0200017
64.295 0.0314546
64.495 0.00411934
64.695 0.00513101
64.895 0.0622075
65.095 0.0805715
65.295 0.0453515
65.495 0.0480678
65.695 0.0251467
65.895 0.00931692
66.095 0.0075601
66.295 0.00533363
66.495 0.00462559
66.695 0.0352452
66.895 0.0309025
67.095 0.0344275
67.295 0.00276047
67.495 0.0190795
67.695 0.0230235
67.895 0.0287146
68.095 -0.0169808
68.295 0.027506
68.495 0.00406352
68.695 0.0149664
68.895 0.0486763
69.095 0.0719716
69.295 0.0592265
69.495 0.0478169
69.695 0.018014
69.895 0.0109829
70.095 0.0106698
70.295 0.000502958
70.495 0.0489258
70.695 0.0551196
70.895 0.0564328
71.095 -0.00129324
71.295 0.00685878
71.495 0.0117577
71.695 0.0525406
71.895 0.124297
72.095 0.115726
72.295 0.0589486
72.495 0.0475006
72.695 -0.0112552
72.895 0.0213185
73.095 0.0166864
73.295 -0.0200906
73.495 -0.00532725
73.695 -0.0211009
73.71 -0.023433

File: 2019-07-01T19_39_31.550325+00_00_LBL_A1.xy
'Id: "" Comment: "Integrate frame 20190716_acnh3_nprop_4flph_01_002.gfrmwith cursor Wedge Cursor #1" Operator: "" Anode: "Co" Scantype: "TwoTheta" TimePerStep: "450"
15.555 -0.0300108
15.755 0.0400896
15.955 0.0811146
16.155 0.050292
16.355 0.0569794
16.555 0.00576617
16.755 0.0302638
16.955 0.0740336
17.155 0.0922785
17.355 0.0177953
17.555 0.00119634
17.755 0.091627
17.955 0.0361676
18.155 0.109541
18.355 0.109003
18.555 -0.00593751
18.755 0.0366181
18.955 0.0687737
19.155 0.072115
19.355 0.0393274
19.555 0.0445344
19.755 0.0414345
19.955 0.0739403
20.155 0.0629476
20.355 0.0481135
20.555 0.0163179
20.755 0.0342919
20.955 0.0688239
21.155 0.0574335
21.355 0.104184
21.555 0.0515666
21.755 0.0806079
21.955 0.00319789
22.155 0.0200513
22.355 0.0323758
22.555 -0.0113054
22.755 0.356297
22.955 0.161675
23.155 0.00273559
23.355 -0.00516855
23.555 0.0477632
23.755 0.00848497
23.955 0.018817
24.155 -0.018263
24.355 -0.00528656
24.555 0.0119173
24.755 -0.000945487
24.955 0.0488519
25.155 0.0113797
25.355 0.0530751
25.555 0.0100402
25.755 0.025029
25.955 0.0150023
26.155 0.0197316
26.355 -0.0101723
26.555 0.025039
26.755 0.0505421
26.955 -0.0102599
27.155 0.054691
27.355 0.0178773
27.555 0.028214
27.755 0.0413313
27.955 0.0826096
28.155 0.0472647
28.355 0.0311443
28.555 0.0124806
28.755 0.0216503
28.955 0.145405
29.155 0.0599167
29.355 1.71037
29.555 3.559
29.755 0.110206
29.955 0.0426943
30.155 0.0574916
30.355 -0.0139956
30.555 -0.0276755
30.755 0.0795823
30.955 0.0111152
31.155 0.00371326
31.355 0.0155131
31.555 0.0233224
31.755 0.0119275
31.955 -0.00103941
32.155 0.00641513
32.355 0.0296342
32.555 -0.010302
32.755 0.0146608
32.955 -0.00492748
33.155 0.032732
33.355 0.0309434
33.555 -0.00939721
33.755 0.00672948
33.955 -0.00178625
34.155 0.00208061
34.355 0.0269753
34.555 0.302579
34.755 0.134144
34.955 0.0967821
35.155 0.837825
35.355 0.292693
35.555 0.0177512
35.755 -0.0161289
35.955 0.0319876
36.155 0.0168881
36.355 0.0140554
36.555 -0.0092206
36.755 0.00643188
36.955 0.117797
37.155 0.585509
37.355 0.157312
37.555 0.269936
37.755 0.0760241
37.955 -0.00957872
38.155 0.0213962
38.355 -0.0116825
38.555 0.00556289
38.755 -0.0113815
38.955 -0.0164074
39.155 0.0303789
39.355 -0.0161538
39.555 -0.00677568
39.755 0.0204183
39.955 0.105382
40.155 0.326891
40.355 0.0391687
40.555 0.0279566
40.755 0.0220153
40.955 0.0336664
41.155 0.0471205
41.355 -0.0134388
41.555 0.00712494
41.755 0.0045323
41.955 -0.000901767
42.155 0.000302758
42.355 -0.00605462
42.555 0.0159802
42.755 -0.001828
42.955 0.0333566
43.155 0.0243
43.355 -0.00562787
43.555 -0.00673354
43.755 0.0158629
43.955 0.218294
44.155 0.221197
44.355 0.0338769
44.555 0.0306097
44.755 0.00377289
44.955 0.0251077
45.155 0.00290698
45.355 0.0238172
45.555 -0.000549611
45.755 0.0403131
45.955 -0.0176248
46.155 0.0330129
46.355 0.0929077
46.555 0.626674
46.755 0.945022
46.955 0.126271
47.155 0.0217249
47.355 -0.0177166
47.555 0.0875424
47.755 0.122485
47.955 0.0220403
48.155 0.122063
48.355 0.34309
48.555 0.355852
48.755 0.78547
48.955 0.106139
49.155 -0.00366631
49.355 0.00893505
49.555 0.0310992
49.755 0.00181718
49.955 -0.00630337
50.155 -0.00492272
50.355 0.0509295
50.555 0.141704
50.755 0.0265022
50.955 -0.00575488
51.155 0.000562173
51.355 0.000294419
51.555 -0.00892719
51.755 -0.0144414
51.955 0.00703465
52.155 -0.02157
52.355 -0.00369981
52.555 7.78809e-05
52.755 -0.00895736
52.955 0.0127906
53.155 -0.00640581
53.355 -0.00555559
53.555 0.0210625
53.755 -0.00857002
53.955 0.0109619
54.155 0.0277662
54.355 0.00432174
54.555 0.0234359
54.755 0.00599548
54.955 -0.00667191
55.155 -0.0110337
55.355 -0.0142099
55.555 -0.0174151
55.755 0.0742136
55.955 0.191735
56.155 0.367618
56.355 0.159973
56.555 -0.0183934
56.755 0.00159168
56.955 -0.00465463
57.155 0.0111599
57.355 0.00324922
57.555 -0.00926865
57.755 0.00452601
57.955 0.00803478
58.155 -0.00491466
58.355 0.0384738
58.555 0.00520004
58.755 -0.00252015
58.955 -0.00394595
59.155 -0.00802061
59.355 0.0310769
59.555 0.0825209
59.755 0.18961
59.955 0.0967511
60.155 0.00745642
60.355 0.000732539
60.555 0.0119274
60.755 0.0204208
60.955 0.0490783
61.155 0.130281
61.355 0.0634463
61.555 0.0358527
61.755 0.013354
61.955 7.41429e-05
62.155 0.00175162
62.355 0.0242356
62.555 0.0209662
62.755 0.0302298
62.955 -0.00395424
63.155 -0.0116631
63.355 -0.00647441
63.555 0.0493091
63.755 0.0127915
63.955 0.006068
64.155 0.00371001
64.355 -0.00285755
64.555 -0.0108905
64.755 0.00509124
64.955 0.0453277
65.155 0.00928814
65.355 -0.00806807
65.555 0.0167514
65.755 0.0297406
65.955 0.0204418
66.155 0.0299731
66.355 0.0265682
66.555 0.00668508
66.755 0.00468842
66.955 0.0150136
67.155 0.0112159
67.355 -0.00743747
67.555 -0.000142425
67.755 0.0156494
67.955 0.0355915
68.155 0.0219774
68.355 0.0138334
68.555 0.01136
68.755 0.000590506
68.955 0.0530102
69.155 0.153847
69.355 0.156773
69.555 0.0993103
69.755 0.0455347
69.955 0.00409682
70.155 0.0186354
70.355 0.00868703
70.555 -0.0109239
70.755 0.0200083
70.955 0.0303748
71.155 0.00764152
71.355 0.0249013
71.555 0.0127749
71.755 -0.00385692
71.955 -0.00568014
72.155 -0.00486658
72.355 -0.00630296
72.555 -0.000557601
72.755 0.0092847
72.955 0.0710449
73.155 0.0872014
73.355 -0.00746996
73.555 -0.00261621
73.755 -0.00554169
73.955 -0.0085219
74.055 -0.0180175

File: 2019-07-01T19_39_31.550325+00_00_LBL_A2.xy
'Id: "" Comment: "Integrate frame 20190716_acnh3_nprop_4flph_02_003.gfrmwith cursor Wedge Cursor #1" Operator: "UC Berkeley" Anode: "Co" Scantype: "TwoTheta" TimePerStep: "450.002"
17.41 -0.0311717
17.6 0.0324359
17.79 0.0348635
17.98 0.100776
18.17 0.0691688
18.36 0.0781786
18.55 0.0797038
18.74 0.110151
18.93 0.273233
19.12 0.176227
19.31 -0.0117077
19.5 0.0615836
19.69 -0.00513778
19.88 0.0488567
20.07 0.164816
20.26 0.0605366
20.45 -0.00158176
20.64 0.0690183
20.83 0.0774047
21.02 0.0123598
21.21 0.0562921
21.4 0.0655914
21.59 0.0361232
21.78 0.0183352
21.97 0.109559
22.16 -0.00778654
22.35 0.042638
22.54 0.0616222
22.73 0.019659
22.92 0.0562738
23.11 0.0324543
23.3 0.031886
23.49 0.0648239
23.68 0.0380154
23.87 -0.00808739
24.06 0.0476357
24.25 0.0632696
24.44 0.0349897
24.63 -0.031045
24.82 0.0866783
25.01 0.00227191
25.2 0.0465608
25.39 0.0309645
25.58 0.781644
25.77 0.498585
25.96 -0.0310998
26.15 0.0141372
26.34 0.0189086
26.53 -0.0281873
26.72 -0.00764284
26.91 -0.00787779
27.1 0.0656739
27.29 0.17611
27.48 0.0881369
27.67 -0.00709019
27.86 0.0591296
28.05 0.0371236
28.24 0.158216
28.43 0.73954
28.62 0.721923
28.81 0.242718
29 0.335881
29.19 0.0424199
29.38 0.579907
29.57 0.54684
29.76 0.0356369
29.95 0.112502
30.14 0.171985
30.33 0.0549084
30.52 0.0665813
30.71 0.00445378
30.9 0.0637394
31.09 0.286561
31.28 0.307508
31.47 0.101255
31.66 0.0379055
31.85 0.0193604
32.04 0.0740948
32.23 0.0373196
32.42 0.0820046
32.61 0.0278636
32.8 0.00930575
32.99 0.0630209
33.18 0.205041
33.37 0.882519
33.56 0.246759
33.75 0.0368077
33.94 0.0403903
34.13 -0.0261776
34.32 0.0361461
34.51 0.285384
34.7 0.529003
34.89 0.0956453
35.08 0.0774804
35.27 0.309959
35.46 0.0467109
35.65 0.0217285
35.84 0.0558382
36.03 0.0151936
36.22 -0.0275565
36.41 -0.0216556
36.6 0.0119992
36.79 0.0134279
36.98 0.118555
37.17 0.76207
37.36 0.388522
37.55 0.103326
37.74 0.0344945
37.93 0.0128943
38.12 0.180229
38.31 0.159561
38.5 0.111083
38.69 0.0496187
38.88 -0.0094816
39.07 -0.0272623
39.26 0.00549745
39.45 0.00194327
39.64 0.0277858
39.83 0.043701
40.02 0.149421
40.21 0.215481
40.4 0.1358
40.59 0.0329697
40.78 0.0210616
40.97 0.0318996
41.16 0.102627
41.35 0.24895
41.54 0.262808
41.73 0.0476509
41.92 -0.00327587
42.11 -0.0215587
42.3 0.0350248
42.49 0.00973837
42.68 0.0308004
42.87 0.0463916
43.06 0.0357201
43.25 0.0195558
43.44 0.00647461
43.63 0.0155439
43.82 0.0663956
44.01 0.0789683
44.2 0.125075
44.39 0.0394741
44.58 0.0384579
44.77 0.0323706
44.96 0.00295461
45.15 0.0112341
45.34 0.000486262
45.53 0.024705
45.72 0.162251
45.91 0.338974
46.1 0.460394
46.29 0.202196
46.48 0.183279
46.67 0.579002
46.86 0.473595
47.05 0.177181
47.24 0.0754874
47.43 0.0199431
47.62 0.135634
47.81 0.112768
48 -0.0154668
48.19 0.0541727
48.38 0.11827
48.57 0.283258
48.76 0.417756
48.95 0.148587
49.14 0.0187628
49.33 -0.00070993
49.52 0.0243318
49.71 0.068778
49.9 0.0593373
50.09 0.0289609
50.28 0.00697304
50.47 -0.0200687
50.66 0.000317867
50.85 -0.0111167
51.04 -0.0135964
51.23 -0.00648378
51.42 -0.023382
51.61 0.022548
51.8 0.0161159
51.99 0.00133439
52.18 0.0139401
52.37 -0.00644304
52.56 0.101027
52.75 0.310296
52.94 0.330998
53.13 0.0262589
53.32 -0.0191831
53.51 -0.00505691
53.7 -0.0158347
53.89 0.0107306
54.08 0.0273271
54.27 0.0667479
54.46 0.289532
54.65 0.635814
54.84 0.446635
55.03 0.072036
55.22 0.00670433
55.41 0.00311067
55.6 0.0245606
55.79 0.0174817
55.98 0.0434262
56.17 0.0587485
56.36 0.0701143
56.55 0.0895012
56.74 0.127308
56.93 0.0588709
57.12 -0.00153642
57.31 -0.0220562
57.5 -0.00216424
57.69 0.0182949
57.88 0.0241175
58.07 0.0145182
58.26 0.0433305
58.45 0.0288619
58.64 0.00199992
58.83 0.0109508
59.02 0.0561362
59.21 0.109368
59.4 0.239505
59.59 0.0801525
59.78 0.0212707
59.97 0.0257832
60.16 -0.00154445
60.35 0.0119336
60.54 0.0435414
60.73 0.0367666
60.92 0.026227
61.11 0.0508426
61.3 0.0444672
61.49 0.0237
61.68 0.0110271
61.87 -0.00399851
62.06 0.00327583
62.25 0.00518749
62.44 -0.00140788
62.63 0.00245791
62.82 0.0262383
63.01 0.0162257
63.2 -0.0172748
63.39 0.0315591
63.58 0.00420936
63.77 0.00967195
63.96 0.0142611
64.15 0.00280855
64.34 0.0143047
64.53 0.0021297
64.72 0.0420198
64.91 0.0534229
65.1 0.0842853
65.29 0.0730226
65.48 0.000881115
65.67 -0.00534478
65.86 -4.86218e-05
66.05 0.00467133
66.24 0.0195606
66.43 -0.00442606
66.62 0.0323586
66.81 -0.0161674
67 0.0229588
67.19 0.0106569
67.38 -0.00402765
67.57 0.0198141
67.76 0.00906871
67.95 -0.0104301
68.14 0.00198303
68.33 0.012019
68.52 -0.0121107
68.71 0.00718331
68.9 -0.00146223
69.09 0.0502416
69.28 0.0745705
69.47 0.0610054
69.66 0.0135839
69.85 0.011508
70.04 0.000546714
70.23 0.0349208
70.42 0.0131535
70.61 -0.00502524
70.8 0.0151021
70.99 0.0193202
71.18 0.00153029
71.37 0.000944694
71.56 0.0114704
71.75 0.00410112
71.94 0.00193611
72.13 0.00606979
72.32 -0.0130946
72.51 0.0133924
72.7 0.0115567
72.89 0.0432691
73.08 0.0647236
73.27 0.0751065
73.46 0.0250909
73.65 -0.00106256
73.84 0.0085682
74.03 0.0135913
74.22 -0.0187826
74.345 -0.0224063