Folder: rapid/data/xrd/xy (part 5)

File: 2019-02-21T16_54_38.714239+00_00_LBL.xy
'Id: "" Comment: "Integrate frame iprodim_02_001.gfrmwith cursor Wedge Cursor #2" Operator: "UC Berkeley" Anode: "Co" Scantype: "TwoTheta" TimePerStep: "300"
14.485 -0.0391856
14.665 0.0649274
14.845 0.111748
15.025 0.0844469
15.205 0.0269354
15.385 0.0143037
15.565 0.0698729
15.745 0.0559447
15.925 0.0671226
16.105 0.0541352
16.285 0.07598
16.465 0.0442459
16.645 0.0505091
16.825 0.0315522
17.005 0.0110017
17.185 0.0568769
17.365 0.0258665
17.545 0.0356881
17.725 0.0730593
17.905 0.0737145
18.085 0.0592359
18.265 0.0574692
18.445 0.200538
18.625 0.073535
18.805 0.0272636
18.985 0.0607829
19.165 0.0619452
19.345 0.0225038
19.525 0.00844525
19.705 0.0554605
19.885 0.0701185
20.065 0.0471896
20.245 0.0453597
20.425 0.0710084
20.605 0.0482689
20.785 0.0519793
20.965 0.043077
21.145 0.0632106
21.325 0.0136481
21.505 -0.0034589
21.685 -0.0115529
21.865 0.0081318
22.045 0.0114259
22.225 0.0492564
22.405 0.056499
22.585 0.0201092
22.765 0.0603032
22.945 0.00607203
23.125 0.0579703
23.305 0.00737406
23.485 0.0312783
23.665 0.0504927
23.845 0.000194638
24.025 0.034309
24.205 0.048309
24.385 0.00980042
24.565 0.0256837
24.745 -0.00359619
24.925 0.0478432
25.105 0.0416177
25.285 0.0962647
25.465 0.0302117
25.645 0.0137757
25.825 0.0110554
26.005 0.0557217
26.185 0.051418
26.365 0.057165
26.545 -0.005688
26.725 0.00203455
26.905 0.0233735
27.085 0.0384697
27.265 0.0411427
27.445 0.0520706
27.625 0.031818
27.805 -0.0101815
27.985 0.0261411
28.165 0.0502727
28.345 0.0287422
28.525 0.0554721
28.705 0.112813
28.885 0.0870384
29.065 0.0234363
29.245 0.0515714
29.425 0.0389729
29.605 0.0295147
29.785 0.0523838
29.965 0.265127
30.145 3.56201
30.325 0.384621
30.505 0.0654879
30.685 0.0144924
30.865 0.0261642
31.045 -0.00535308
31.225 -0.00107084
31.405 0.0112955
31.585 0.0164472
31.765 -0.004105
31.945 0.0140973
32.125 0.00602408
32.305 -0.00321294
32.485 0.0119638
32.665 -0.0107325
32.845 0.00440834
33.025 -0.00297576
33.205 -0.0204699
33.385 -0.0121373
33.565 0.00902173
33.745 -0.0139114
33.925 0.00342681
34.105 0.00326063
34.285 -0.0140759
34.465 0.0274504
34.645 0.0695058
34.825 0.601273
35.005 0.211763
35.185 -0.00504463
35.365 0.0122145
35.545 0.00472131
35.725 -0.00785123
35.905 -0.00025516
36.085 0.0376995
36.265 0.441333
36.445 0.150003
36.625 -0.0127954
36.805 0.0163334
36.985 0.0291156
37.165 0.0232007
37.345 0.198435
37.525 1.2378
37.705 0.425082
37.885 0.00650912
38.065 0.00496486
38.245 0.00762294
38.425 0.0343824
38.605 0.11005
38.785 0.023141
38.965 -0.00347937
39.145 0.00869541
39.325 0.034713
39.505 0.0175595
39.685 0.00153536
39.865 -0.01323
40.045 0.00842921
40.225 -0.0084608
40.405 0.0127311
40.585 0.0094095
40.765 0.0203495
40.945 0.0169376
41.125 0.0248644
41.305 0.0686125
41.485 0.0861333
41.665 0.0188899
41.845 -0.0056693
42.025 -0.0067727
42.205 -0.00653215
42.385 0.00112876
42.565 0.0230822
42.745 -0.00824715
42.925 -0.00430531
43.105 -0.00855272
43.285 0.00267844
43.465 0.0255022
43.645 0.0203233
43.825 0.0303581
44.005 0.0849274
44.185 0.0106232
44.365 0.0182695
44.545 0.0682366
44.725 0.342169
44.905 0.134304
45.085 0.0652937
45.265 0.0386104
45.445 0.030472
45.625 0.00663231
45.805 0.0105658
45.985 0.0153797
46.165 -0.00776812
46.345 0.00735115
46.525 0.0129159
46.705 -0.0163203
46.885 -0.0109201
47.065 0.012032
47.245 0.00613721
47.425 0.0203401
47.605 0.0971045
47.785 0.180341
47.965 0.556004
48.145 0.877796
48.325 0.534284
48.505 0.0536675
48.685 0.026143
48.865 0.143457
49.045 0.285215
49.225 0.0938424
49.405 0.0382793
49.585 0.000535205
49.765 -0.005878
49.945 0.0172645
50.125 0.10943
50.305 0.355948
50.485 0.144279
50.665 -0.00325313
50.845 -0.015568
51.025 -0.0040262
51.205 6.77718e-05
51.385 -0.00316926
51.565 -0.00319368
51.745 -0.00542953
51.925 0.0157109
52.105 0.0632976
52.285 0.013925
52.465 -0.0061434
52.645 -0.00256169
52.825 -0.00444125
53.005 0.00161953
53.185 0.00318858
53.365 -0.00401609
53.545 0.00400936
53.725 0.076306
53.905 0.0733828
54.085 0.0251542
54.265 0.00159859
54.445 0.0014808
54.625 -0.0119154
54.805 0.00446482
54.985 -0.00140236
55.165 0.00619661
55.345 0.0406536
55.525 0.000123128
55.705 -0.0108819
55.885 0.00685335
56.065 0.0174447
56.245 0.0059165
56.425 -0.000826799
56.605 0.00112865
56.785 0.0130345
56.965 0.0333043
57.145 0.0546277
57.325 0.0610387
57.505 0.0330862
57.685 0.092019
57.865 0.199555
58.045 0.234211
58.225 0.052688
58.405 0.0182697
58.585 0.0230279
58.765 0.00180501
58.945 0.000596896
59.125 0.0104953
59.305 0.000165176
59.485 -0.00496252
59.665 0.000858006
59.845 0.00882327
60.025 -0.00737701
60.205 0.00301514
60.385 0.0143939
60.565 -0.00182323
60.745 -0.00624506
60.925 0.00901119
61.105 0.0277877
61.285 -0.00887138
61.465 0.00738402
61.645 0.0370915
61.825 0.0846651
62.005 0.197842
62.185 0.35602
62.365 0.126906
62.545 0.317095
62.725 0.128949
62.905 0.0613513
63.085 0.0186848
63.265 0.0116289
63.445 0.00283669
63.625 0.0133341
63.805 -0.00229932
63.985 0.00667927
64.165 0.0049327
64.345 0.0134524
64.525 0.00565117
64.705 0.0330462
64.885 0.0577117
65.065 0.129873
65.245 0.0561978
65.425 0.0196377
65.605 0.0105724
65.785 -0.0030996
65.965 0.0146562
66.145 -0.0102301
66.325 0.00501834
66.505 0.0138955
66.685 0.0102322
66.865 0.0104529
67.045 0.0030096
67.205 -0.0190869

File: 2019-03-19T18_02_18.665051+00_00_LBL.xy
'Id: "" Comment: "Integrate frame pyrro0_00_003.gfrmwith cursor Wedge Cursor #1" Operator: "UC Berkeley" Anode: "Co" Scantype: "TwoTheta" TimePerStep: "1200.002"
13.645 -0.0188664
13.845 0.0101238
14.045 0.0458191
14.245 0.0497001
14.445 0.0103776
14.645 0.032304
14.845 0.0243792
15.045 0.0284644
15.245 0.056687
15.445 0.0478002
15.645 0.0343609
15.845 0.028705
16.045 0.0363442
16.245 0.0444003
16.445 0.0375111
16.645 0.0391803
16.845 0.0666433
17.045 0.0457961
17.245 0.0337773
17.445 0.0691239
17.645 0.0617369
17.845 0.0500386
18.045 0.0741706
18.245 0.0846156
18.445 0.0914685
18.645 0.0557456
18.845 0.0947427
19.045 0.0954745
19.245 0.119019
19.445 0.12262
19.645 0.132908
19.845 0.122859
20.045 0.104089
20.245 0.159456
20.445 0.150833
20.645 0.152452
20.845 0.164698
21.045 0.168232
21.245 0.208011
21.445 0.19664
21.645 0.216658
21.845 0.205816
22.045 0.251525
22.245 0.25892
22.445 0.286649
22.645 0.291405
22.845 0.266421
23.045 0.320711
23.245 0.339553
23.445 0.307088
23.645 0.337267
23.845 0.317038
24.045 0.348459
24.245 0.383682
24.445 0.333806
24.645 0.383423
24.845 0.422649
25.045 0.43557
25.245 0.515519
25.445 0.628867
25.645 0.993337
25.845 2.53337
26.045 6.77893
26.245 4.42733
26.445 1.13477
26.645 0.535932
26.845 0.35648
27.045 0.290272
27.245 0.224393
27.445 0.188521
27.645 0.170136
27.845 0.163584
28.045 0.127493
28.245 0.1179
28.445 0.18794
28.645 0.282553
28.845 0.0987888
29.045 0.0968154
29.245 0.0539306
29.445 0.0719794
29.645 0.0435469
29.845 0.0867552
30.045 0.0442287
30.245 0.0369316
30.445 0.0846944
30.645 0.0675422
30.845 0.0388632
31.045 0.0284438
31.245 0.0109382
31.445 0.0175467
31.645 0.0376085
31.845 0.0152035
32.045 0.0286201
32.245 0.0095837
32.445 0.0143734
32.645 0.0101036
32.845 -0.00292229
33.045 0.000891831
33.245 -0.00269185
33.445 -0.00381213
33.645 0.00395431
33.845 0.0316315
34.045 0.0828585
34.245 0.0390226
34.445 0.0230911
34.645 -0.00256347
34.845 -0.00112097
35.045 0.00372268
35.245 -0.00588031
35.445 0.00161075
35.645 0.00256742
35.845 -0.00851915
36.045 -0.00780616
36.245 0.0210629
36.445 0.0556496
36.645 0.0211871
36.845 0.00318474
37.045 -0.0115273
37.245 0.00731525
37.445 -0.00490565
37.645 0.0207672
37.845 0.0186461
38.045 0.0365625
38.245 0.0473969
38.445 0.0769849
38.645 0.139243
38.845 0.266895
39.045 0.520123
39.245 0.909678
39.445 1.16573
39.645 1.05948
39.845 0.688275
40.045 0.32005
40.245 0.145838
40.445 0.0810529
40.645 0.0661395
40.845 0.0644543
41.045 0.0247839
41.245 0.0186953
41.445 0.00793941
41.645 0.000835773
41.845 0.0120118
42.045 0.0015563
42.245 0.00703619
42.445 0.000830931
42.645 0.00592385
42.845 0.00512957
43.045 0.0346648
43.245 0.0289305
43.445 0.00685562
43.645 0.0256903
43.845 -0.00156754
44.045 -0.00208543
44.245 0.00489476
44.445 0.009467
44.645 0.00193677
44.845 0.0127606
45.045 0.0767472
45.245 0.123014
45.445 0.125772
45.645 0.0496701
45.845 0.0701477
46.045 0.0990576
46.245 0.0842388
46.445 0.0387553
46.645 0.0298428
46.845 0.138744
47.045 0.263904
47.245 0.200229
47.445 0.238875
47.645 0.0933075
47.845 0.0151376
48.045 0.00592617
48.245 0.00200504
48.445 -0.0038325
48.645 0.00406568
48.845 -0.00261796
49.045 0.00855669
49.245 0.00660685
49.445 0.0119098
49.645 0.0273299
49.845 0.0262218
50.045 0.00849148
50.245 -0.00169219
50.445 0.000178402
50.645 0.00600719
50.845 0.00247208
51.045 -0.00391531
51.245 0.00271982
51.445 -0.00729885
51.645 0.0104831
51.845 0.0151569
52.045 0.0146698
52.245 0.0358741
52.445 0.0453962
52.645 0.0410054
52.845 0.0358518
53.045 0.00940631
53.245 0.0156307
53.445 0.00954547
53.645 0.0151911
53.845 0.0311617
54.045 0.044397
54.245 0.0531309
54.445 0.0956888
54.645 0.144881
54.845 0.110872
55.045 0.179815
55.245 0.292615
55.445 0.370652
55.645 0.362505
55.845 0.240309
56.045 0.134178
56.245 0.0701344
56.445 0.032678
56.645 0.0369975
56.845 0.0340795
57.045 0.0325897
57.245 0.0264033
57.445 0.0307874
57.645 0.0328511
57.845 0.0645598
58.045 0.134976
58.245 0.0483248
58.445 0.010519
58.645 0.0107905
58.845 0.00531237
59.045 0.00584522
59.245 0.0196231
59.445 0.0248426
59.645 0.0260338
59.845 0.00944736
60.045 0.0179154
60.245 0.00354078
60.445 0.0022353
60.645 0.00422158
60.845 0.0298882
61.045 0.0312084
61.245 0.0427335
61.445 0.0324056
61.645 0.041382
61.845 0.0670486
62.045 0.0909278
62.245 0.135816
62.445 0.185681
62.645 0.141184
62.845 0.0919111
63.045 0.056792
63.245 0.0244753
63.445 0.00462494
63.645 -0.0034002
63.845 0.0121303
64.045 0.0176567
64.245 0.0286297
64.445 0.0309781
64.645 0.0238451
64.845 0.0199777
65.045 -0.00592247
65.245 -0.00144622
65.445 0.00654655
65.645 0.00189561
65.845 -0.00140206
66.045 0.0140411
66.245 0.00326875
66.445 -0.00373587
66.645 0.00608432
66.845 0.00339159
67.045 0.00526167
67.245 0.0336794
67.445 0.0431402
67.645 0.0428116
67.845 0.0380395
68.045 0.00722631
68.245 0.0189693
68.445 0.0230012
68.645 0.0338516
68.845 0.0414058
69.045 0.0418069
69.245 0.0326692
69.445 0.0192066
69.645 0.00791832
69.845 0.00943058
70.045 -0.0019545
70.245 0.00641335
70.445 0.00713612
70.645 -0.00159046
70.845 0.00611641
71.045 0.00874204
71.245 0.00550617
71.445 0.00159787
71.645 0.00525455
71.845 0.00833158
72.045 0.014596
72.245 0.00313591
72.445 0.00455995
72.46 -0.00996629

File: 2019-04-10T15_37_43.338519+00_00_LBL.xy
'Id: "" Comment: "Integrate frame EtABr_EtA2I_03_001.gfrmwith cursor Wedge Cursor #4" Operator: "UC Berkeley" Anode: "Co" Scantype: "TwoTheta" TimePerStep: "400"
14.095 -0.0327482
14.285 0.0543541
14.475 0.0602053
14.665 0.000364342
14.855 0.0698146
15.045 0.0170566
15.235 0.0277011
15.425 0.0255401
15.615 0.0884317
15.805 0.0229334
15.995 0.069786
16.185 0.0118712
16.375 0.0220281
16.565 0.0426137
16.755 0.022184
16.945 0.0368949
17.135 0.0299241
17.325 0.03779
17.515 0.0410407
17.705 0.094289
17.895 0.0405185
18.085 0.0777396
18.275 0.0923831
18.465 0.141339
18.655 0.107102
18.845 0.0180858
19.035 0.0613418
19.225 0.0589001
19.415 0.0366367
19.605 0.0617109
19.795 0.0515656
19.985 0.0341152
20.175 0.0320958
20.365 0.0576946
20.555 -0.0123429
20.745 0.0237264
20.935 0.0519348
21.125 0.00193284
21.315 0.0593681
21.505 -0.0146082
21.695 0.0227595
21.885 0.0182016
22.075 0.0291693
22.265 0.0538139
22.455 0.0517929
22.645 0.0384815
22.835 0.0206774
23.025 0.0492811
23.215 0.0792665
23.405 0.187911
23.595 0.204004
23.785 0.0499914
23.975 0.0239646
24.165 0.0262353
24.355 0.0330663
24.545 0.0333452
24.735 -0.000738193
24.925 0.0309631
25.115 0.0689914
25.305 0.1686
25.495 0.0344709
25.685 0.0139483
25.875 0.0202119
26.065 0.0287452
26.255 0.0150437
26.445 0.0313282
26.635 0.0536278
26.825 0.0252904
27.015 0.0344371
27.205 0.0656273
27.395 -0.00530979
27.585 0.0525277
27.775 0.0470942
27.965 0.0372256
28.155 0.0521723
28.345 0.022213
28.535 0.0431327
28.725 0.354608
28.915 0.134101
29.105 0.0580665
29.295 0.0789665
29.485 0.109699
29.675 0.190018
29.865 0.769663
30.055 2.79619
30.245 0.559116
30.435 0.111272
30.625 0.0362819
30.815 0.0374187
31.005 0.0165172
31.195 0.013238
31.385 0.0384408
31.575 0.017002
31.765 0.00659167
31.955 -0.011331
32.145 0.0175269
32.335 -0.0178037
32.525 0.000717594
32.715 0.0122228
32.905 0.012015
33.095 -0.000852584
33.285 -0.0154637
33.475 0.0094807
33.665 0.0166006
33.855 0.0221442
34.045 0.00901993
34.235 0.0299711
34.425 0.118928
34.615 0.539951
34.805 1.15036
34.995 0.214055
35.185 0.0579272
35.375 0.0177631
35.565 0.0117822
35.755 0.0341559
35.945 0.24983
36.135 1.04408
36.325 0.937518
36.515 0.14596
36.705 0.0455138
36.895 0.0645155
37.085 0.101812
37.275 0.635304
37.465 1.20045
37.655 0.321639
37.845 0.061632
38.035 0.0146298
38.225 0.0559837
38.415 0.212744
38.605 0.126662
38.795 0.0248044
38.985 -0.00120186
39.175 -0.00656973
39.365 -0.00593438
39.555 0.0101708
39.745 0.0163089
39.935 -0.00424979
40.125 -0.0215324
40.315 -0.00153565
40.505 0.00719708
40.695 0.0811283
40.885 0.063124
41.075 0.088601
41.265 0.23312
41.455 0.0898672
41.645 0.00870804
41.835 0.00212426
42.025 0.0124239
42.215 -0.0055365
42.405 0.00152736
42.595 -0.000985952
42.785 -0.00975737
42.975 -0.00530673
43.165 0.024162
43.355 0.00368644
43.545 0.002381
43.735 0.0170695
43.925 0.0127187
44.115 0.0266263
44.305 0.0672737
44.495 0.199775
44.685 0.32956
44.875 0.117574
45.065 0.0113648
45.255 0.0115486
45.445 -0.00982628
45.635 0.00809763
45.825 0.0254916
46.015 0.0183198
46.205 0.00829794
46.395 0.0229075
46.585 -0.00362156
46.775 0.0474303
46.965 0.0378105
47.155 0.0447467
47.345 0.174383
47.535 0.354453
47.725 0.504
47.915 1.12342
48.105 1.27998
48.295 0.425409
48.485 0.118703
48.675 0.10824
48.865 0.266521
49.055 0.349592
49.245 0.160632
49.435 0.0580011
49.625 0.0539938
49.815 0.155529
50.005 0.445724
50.195 0.61945
50.385 0.205752
50.575 0.0273183
50.765 0.00356906
50.955 -0.0147932
51.145 -0.00309237
51.335 -0.00432283
51.525 0.0902439
51.715 0.242859
51.905 0.285963
52.095 0.122234
52.285 0.0186796
52.475 -0.00479809
52.665 0.00522999
52.855 -0.00381839
53.045 -0.0122094
53.235 0.0165394
53.425 0.0407113
53.615 0.113419
53.805 0.19317
53.995 0.123509
54.185 0.0102989
54.375 -0.00075228
54.565 -0.0151862
54.755 -0.0190203
54.945 0.0213074
55.135 0.013002
55.325 -0.0059953
55.515 -0.00580953
55.705 -0.00871067
55.895 0.00810675
56.085 -0.0036133
56.275 0.0170227
56.465 -0.00526819
56.655 0.0140629
56.845 0.0568131
57.035 0.0744991
57.225 0.0492704
57.415 0.111866
57.605 0.235474
57.795 0.29002
57.985 0.113318
58.175 0.0248717
58.365 -0.00916255
58.555 -0.00302862
58.745 -0.00230184
58.935 0.00272656
59.125 0.000274972
59.315 0.00364648
59.505 0.0137337
59.695 0.0158248
59.885 0.000996744
60.075 -0.00155458
60.265 0.0242704
60.455 0.00147939
60.645 -0.0176698
60.835 0.0143484
61.025 0.0300173
61.215 0.0632985
61.405 0.0821532
61.595 0.192075
61.785 0.163298
61.975 0.0995965
62.165 0.105224
62.355 0.228791
62.545 0.226864
62.735 0.10841
62.925 0.018705
63.115 0.0131998
63.305 0.00925738
63.495 -0.00111375
63.685 -0.0130838
63.875 -0.00300893
64.065 -0.00806834
64.255 0.00950855
64.445 0.0169004
64.635 0.0666033
64.825 0.11644
65.015 0.13072
65.205 0.0766486
65.395 0.0115507
65.585 0.00379748
65.775 0.00415934
65.965 0.00162127
66.155 0.00312034
66.345 0.00883467
66.535 -0.0019613
66.725 -0.00890145
66.915 -0.00904765
67.105 0.0123655
67.295 -0.000773297
67.485 0.0304885
67.675 0.046938
67.865 0.0413844
68.055 0.0130731
68.245 0.029185
68.435 0.0179375
68.625 0.00658625
68.815 0.00298287
69.005 0.00778385
69.195 0.0180933
69.385 0.014934
69.575 -0.00543815
69.76 -0.0209923

File: 2019-05-13T18_52_03.413380+00_00_LBL.xy
'Id: "" Comment: "Integrate frame ProdiAPbI30_01_001.gfrmwith cursor Wedge Cursor #1" Operator: "UC Berkeley" Anode: "Co" Scantype: "TwoTheta" TimePerStep: "900"
14.275 -0.0211044
14.45 -0.00517839
14.625 0.0469526
14.8 -0.00309632
14.975 0.0419355
15.15 0.0262152
15.325 0.0356598
15.5 0.0310885
15.675 0.00762265
15.85 -0.000195123
16.025 0.0385449
16.2 0.0163312
16.375 0.0137883
16.55 0.0284475
16.725 0.0247239
16.9 0.0162835
17.075 0.0131333
17.25 0.0211865
17.425 0.00329064
17.6 0.0260043
17.775 0.0528925
17.95 0.0302825
18.125 0.00877431
18.3 0.026595
18.475 0.0693814
18.65 0.00168324
18.825 0.00562293
19 0.0284166
19.175 0.030429
19.35 0.0371421
19.525 0.0285093
19.7 0.0251101
19.875 0.0121974
20.05 0.0264471
20.225 0.0221602
20.4 0.0347782
20.575 0.0146959
20.75 0.0111445
20.925 0.0235927
21.1 0.0294976
21.275 -0.00153704
21.45 0.0253867
21.625 0.0291903
21.8 0.00362199
21.975 0.0282842
22.15 0.0292856
22.325 -0.00142955
22.5 0.0327271
22.675 0.00118357
22.85 0.0181904
23.025 -0.00610831
23.2 0.000333472
23.375 0.129263
23.55 0.180912
23.725 0.0115468
23.9 -0.00476164
24.075 0.0128878
24.25 0.0177631
24.425 0.0266869
24.6 0.0204479
24.775 0.00804355
24.95 -0.000623034
25.125 0.0145874
25.3 0.052249
25.475 0.0234464
25.65 0.00991248
25.825 0.029165
26 0.0162645
26.175 -0.00181858
26.35 0.009367
26.525 0.0197168
26.7 0.0157931
26.875 0.00940767
27.05 0.0178764
27.225 0.0116734
27.4 0.0160664
27.575 0.0245325
27.75 -0.000800932
27.925 0.0051761
28.1 0.023912
28.275 -0.00663239
28.45 0.00696612
28.625 0.0795891
28.8 0.201274
28.975 0.0346766
29.15 0.0388144
29.325 0.00491138
29.5 0.0133661
29.675 0.0627966
29.85 0.398756
30.025 1.87616
30.2 0.453249
30.375 0.0582027
30.55 0.0388635
30.725 0.0097274
30.9 0.00424785
31.075 0.0311908
31.25 0.0113419
31.425 0.00714834
31.6 0.0044512
31.775 0.0136578
31.95 0.0115153
32.125 0.0063077
32.3 -0.00815822
32.475 0.00389307
32.65 0.00365147
32.825 -0.0134339
33 -0.00586529
33.175 0.00237795
33.35 -0.000418672
33.525 -0.00835627
33.7 -0.000399658
33.875 0.00169791
34.05 -0.00105846
34.225 0.0123676
34.4 0.0490738
34.575 0.293099
34.75 1.16909
34.925 0.30197
35.1 0.0316358
35.275 0.00936344
35.45 0.0116719
35.625 0.0238744
35.8 0.0427019
35.975 0.17974
36.15 1.22945
36.325 0.541896
36.5 0.0699015
36.675 0.034594
36.85 0.0131057
37.025 0.046069
37.2 0.226357
37.375 1.28521
37.55 0.630788
37.725 0.0826538
37.9 0.0301686
38.075 0.0125859
38.25 0.0566162
38.425 0.24111
38.6 0.10791
38.775 0.0152251
38.95 0.00198163
39.125 0.00153294
39.3 -0.00213465
39.475 -0.0127196
39.65 -0.00445889
39.825 -0.00940527
40 -0.0108868
40.175 0.00620562
40.35 -0.00612664
40.525 0.00564154
40.7 0.0869749
40.875 0.0486777
41.05 0.0510554
41.225 0.161535
41.4 0.0733202
41.575 0.00537127
41.75 0.0142657
41.925 0.00725204
42.1 -0.000719861
42.275 0.00328065
42.45 -0.000540263
42.625 -0.00709939
42.8 -0.00595028
42.975 0.00127414
43.15 -0.0103101
43.325 0.0100875
43.5 -0.000273935
43.675 -0.00356991
43.85 0.0102002
44.025 0.0160605
44.2 -0.00619054
44.375 0.0574847
44.55 0.182704
44.725 0.261421
44.9 0.0665897
45.075 0.0222208
45.25 0.0148672
45.425 -0.0135021
45.6 0.00448126
45.775 0.00135752
45.95 -0.00219083
46.125 -0.0147631
46.3 -0.0105655
46.475 0.000838905
46.65 0.000765802
46.825 0.00984445
47 0.0180787
47.175 0.0402164
47.35 0.107087
47.525 0.426725
47.7 0.406123
47.875 1.10346
48.05 1.95253
48.225 0.415296
48.4 0.0958335
48.575 0.0736662
48.75 0.119755
48.925 0.321184
49.1 0.241819
49.275 0.0732776
49.45 0.0382951
49.625 0.0591502
49.8 0.109487
49.975 0.413375
50.15 0.63315
50.325 0.177708
50.5 0.0449406
50.675 0.011326
50.85 0.00307363
51.025 0.00305974
51.2 0.00294956
51.375 0.00577816
51.55 0.0304398
51.725 0.125343
51.9 0.213981
52.075 0.0749926
52.25 0.0128674
52.425 -0.0014742
52.6 -0.00266683
52.775 -0.00897985
52.95 -0.00282941
53.125 -0.00335775
53.3 0.0056759
53.475 0.0257603
53.65 0.107881
53.825 0.213477
54 0.0996236
54.175 0.0128934
54.35 0.0031957
54.525 -0.0106612
54.7 -0.000484464
54.875 0.00923553
55.05 0.0303605
55.225 0.00397938
55.4 -0.00320972
55.575 0.00430123
55.75 -0.00253397
55.925 -0.00348185
56.1 -0.0014904
56.275 0.00435327
56.45 0.0048988
56.625 0.0296216
56.8 0.0572057
56.975 0.0980512
57.15 0.0554946
57.325 0.062956
57.5 0.171761
57.675 0.297054
57.85 0.179241
58.025 0.0527521
58.2 0.00794845
58.375 0.00630296
58.55 0.00350614
58.725 0.0170982
58.9 0.000606885
59.075 0.0071302
59.25 0.000369396
59.425 0.0113259
59.6 -0.00257655
59.775 0.00874529
59.95 0.000901543
60.125 -0.00516623
60.3 0.00129663
60.475 0.00969651
60.65 0.0129742
60.825 0.00732773
61 0.0162527
61.175 0.0336701
61.35 0.142269
61.525 0.35187
61.7 0.161804
61.875 0.080109
62.05 0.0751681
62.225 0.111837
62.4 0.181915
62.575 0.130453
62.75 0.058844
62.925 0.0246568
63.1 0.0254694
63.275 0.0193422
63.45 0.0078699
63.625 0.00502747
63.8 0.0129891
63.975 -0.000843182
64.15 -0.0054558
64.325 0.0164127
64.5 0.0446437
64.675 0.0912935
64.85 0.158287
65.025 0.151266
65.2 0.0714142
65.375 0.0220713
65.55 0.00725496
65.725 0.0100262
65.9 0.0044353
66.075 -0.00195725
66.25 -0.0049042
66.425 -0.00172321
66.525 -0.012252

File: 2019-05-23TO2_12_25.720560+00_00_LBL_A1.xy
'Id: "" Comment: "Integrate frame 06062019_neo_Pentyl_01_002.gfrmwith cursor Wedge Cursor #1" Operator: "UC Berkeley" Anode: "Co" Scantype: "TwoTheta" TimePerStep: "600"
14.35 -0.024906
14.52 -0.012386
14.69 -0.000883529
14.86 0.0261968
15.03 0.0487341
15.2 0.02959
15.37 0.022421
15.54 0.0322009
15.71 0.085866
15.88 0.0169478
16.05 0.0210088
16.22 0.0878395
16.39 0.0935168
16.56 0.086273
16.73 0.0884082
16.9 0.176329
17.07 0.230022
17.24 0.0255805
17.41 0.0386926
17.58 0.0350271
17.75 0.0653537
17.92 0.0346054
18.09 0.03698
18.26 0.0484987
18.43 0.0846618
18.6 0.0510146
18.77 0.0452966
18.94 0.0436935
19.11 0.112095
19.28 0.137599
19.45 0.52136
19.62 0.103249
19.79 0.00425522
19.96 0.0456092
20.13 0.0677099
20.3 0.0410155
20.47 0.017965
20.64 0.0424932
20.81 0.0024939
20.98 0.0320752
21.15 0.0165243
21.32 0.0465025
21.49 -0.00619139
21.66 0.0252363
21.83 0.0135593
22 0.204935
22.17 0.0847226
22.34 0.0441208
22.51 0.0797384
22.68 0.0728466
22.85 0.204546
23.02 0.156635
23.19 0.0163882
23.36 0.0441094
23.53 0.0315201
23.7 0.0775287
23.87 0.109663
24.04 0.662514
24.21 0.413561
24.38 0.0760643
24.55 0.0231666
24.72 0.0515421
24.89 0.203943
25.06 0.231647
25.23 0.0624715
25.4 -0.007779
25.57 0.193115
25.74 0.0628244
25.91 0.247649
26.08 1.51798
26.25 0.19253
26.42 0.0506925
26.59 0.0458038
26.76 0.0205323
26.93 -0.0114593
27.1 0.00277272
27.27 0.163729
27.44 0.0519371
27.61 0.0551501
27.78 0.0236307
27.95 0.0556953
28.12 0.168031
28.29 0.0870307
28.46 0.23359
28.63 0.80063
28.8 0.100443
28.97 0.0142293
29.14 0.0204468
29.31 0.0871654
29.48 0.0304542
29.65 0.0502465
29.82 0.074456
29.99 0.0207511
30.16 0.191503
30.33 0.0688782
30.5 0.00484834
30.67 0.0293073
30.84 0.169208
31.01 0.0655508
31.18 -0.00178852
31.35 0.0718759
31.52 0.0753373
31.69 0.487193
31.86 0.398555
32.03 0.0144818
32.2 0.18515
32.37 0.924869
32.54 0.391784
32.71 0.554786
32.88 0.170495
33.05 0.24262
33.22 0.0666728
33.39 0.26565
33.56 0.333069
33.73 0.030095
33.9 0.101047
34.07 0.449865
34.24 0.262004
34.41 0.477049
34.58 0.117439
34.75 0.101157
34.92 0.416587
35.09 0.165096
35.26 0.0538519
35.43 0.0468121
35.6 0.160105
35.77 0.627146
35.94 1.06772
36.11 0.590068
36.28 0.071433
36.45 -0.00655487
36.62 0.00641103
36.79 0.0615711
36.96 0.135966
37.13 0.017923
37.3 -0.000737676
37.47 -0.00150681
37.64 0.0261546
37.81 0.0179086
37.98 0.0369069
38.15 0.00819906
38.32 0.0248513
38.49 0.00711757
38.66 0.00485205
38.83 0.0422856
39 0.0428929
39.17 0.029255
39.34 0.0727028
39.51 0.135039
39.68 0.300381
39.85 0.432183
40.02 0.136102
40.19 0.0850428
40.36 0.136292
40.53 0.249005
40.7 0.793992
40.87 0.500298
41.04 0.145024
41.21 0.00279732
41.38 0.0103084
41.55 0.0726176
41.72 0.116139
41.89 0.0548257
42.06 0.0230012
42.23 0.00183842
42.4 0.0911506
42.57 0.130807
42.74 0.146456
42.91 0.0957049
43.08 0.0400131
43.25 0.0104987
43.42 0.00336963
43.59 0.00279977
43.76 -0.00129417
43.93 0.0474943
44.1 0.0310201
44.27 0.024799
44.44 0.0558206
44.61 0.346448
44.78 0.186325
44.95 0.22102
45.12 0.228401
45.29 0.120889
45.46 0.152544
45.63 0.284289
45.8 0.175834
45.97 0.0882012
46.14 0.0529407
46.31 0.184791
46.48 0.55999
46.65 0.241783
46.82 0.211807
46.99 0.156897
47.16 0.190378
47.33 0.243855
47.5 0.22964
47.67 0.170636
47.84 0.060492
48.01 0.0242944
48.18 0.0131436
48.35 0.0232811
48.52 0.00136517
48.69 -0.0114115
48.86 0.0155771
49.03 0.0308148
49.2 0.226551
49.37 0.490741
49.54 0.139529
49.71 0.0534654
49.88 0.159433
50.05 0.215536
50.22 0.394581
50.39 0.137056
50.56 0.0559571
50.73 0.0310546
50.9 0.0412663
51.07 0.071401
51.24 0.135466
51.41 0.088356
51.58 0.122751
51.75 0.195554
51.92 0.201452
52.09 0.601613
52.26 0.784284
52.43 0.187646
52.6 0.0875933
52.77 0.0953428
52.94 0.100822
53.11 0.185558
53.28 0.296574
53.45 0.198963
53.62 0.125893
53.79 0.0776657
53.96 0.0605233
54.13 0.18233
54.3 0.177182
54.47 0.134869
54.64 0.0589246
54.81 -0.0124089
54.98 -0.000530642
55.15 -0.00357272
55.32 0.00184399
55.49 0.000801473
55.66 0.0235974
55.83 0.0331421
56 0.035178
56.17 0.0364445
56.34 0.0657332
56.51 0.0534301
56.68 0.0455107
56.85 0.0149716
57.02 0.00812239
57.19 0.0189125
57.36 0.00818014
57.53 0.0467574
57.7 0.125644
57.87 0.0566825
58.04 0.0678454
58.21 0.033276
58.38 0.0209135
58.55 0.0197162
58.72 0.00141487
58.89 0.00753651
59.06 0.0477365
59.23 0.0831466
59.4 0.0536405
59.57 0.0266119
59.74 0.0153186
59.91 0.0212083
60.08 0.0262608
60.25 0.0492989
60.42 0.0513254
60.59 0.0335913
60.76 0.0790094
60.93 0.101833
61.1 0.0265252
61.27 0.0549258
61.44 0.0433981
61.61 0.000409129
61.78 0.00839657
61.95 0.00220524
62.12 -0.00998022
62.29 0.0149747
62.46 0.0166931
62.63 0.0143256
62.8 0.00657887
62.97 -0.000113707
63.14 -0.00218501
63.31 0.00776872
63.48 0.0203943
63.65 0.0230141
63.82 0.0405219
63.99 0.0151613
64.16 -0.00749827
64.33 -0.00601321
64.5 0.00911894
64.6 -0.0175416