Folder: rapid/data/xrd/xy (part 3)

File: 2018-08-21T00_41_41.669916+00_00_LBL.xy
'Id: "" Comment: "Integrate frame EAPbI30_00_001.gfrmwith cursor Wedge Cursor #5" Operator: "UC Berkeley" Anode: "Co" Scantype: "TwoTheta" TimePerStep: "300.011"
13.49 -0.028574
13.695 0.199922
13.9 0.0623483
14.105 -0.013399
14.31 0.085418
14.515 0.106673
14.72 0.0964082
14.925 0.115686
15.13 0.114801
15.335 0.0659906
15.54 0.0744386
15.745 0.0783803
15.95 0.0071482
16.155 0.0679932
16.36 0.0966423
16.565 0.0468443
16.77 0.112523
16.975 0.108096
17.18 0.0452545
17.385 0.0892749
17.59 0.0620832
17.795 0.0284591
18 0.0592512
18.205 0.0257579
18.41 0.0861157
18.615 0.110966
18.82 0.070165
19.025 0.122653
19.23 0.0457009
19.435 0.117241
19.64 0.0300189
19.845 0.0658234
20.05 0.0729498
20.255 0.0746522
20.46 0.138301
20.665 0.0278289
20.87 0.0812212
21.075 0.0961476
21.28 0.0384486
21.485 0.0344526
21.69 0.0725488
21.895 0.00768687
22.1 0.0735088
22.305 0.106404
22.51 0.0621675
22.715 0.0503553
22.92 0.045902
23.125 0.0576411
23.33 0.0673389
23.535 0.10937
23.74 0.0999076
23.945 0.101886
24.15 0.0804924
24.355 0.0383455
24.56 0.0774452
24.765 0.0880204
24.97 0.0543552
25.175 0.0821115
25.38 0.131607
25.585 0.0424035
25.79 0.0759064
25.995 0.0590352
26.2 0.0691025
26.405 0.0500291
26.61 0.0649158
26.815 0.0847894
27.02 0.066466
27.225 0.0137586
27.43 0.0580901
27.635 0.0523139
27.84 0.0563408
28.045 0.055251
28.25 0.119517
28.455 0.0180839
28.66 0.0836716
28.865 0.103816
29.07 0.0516673
29.275 0.0458371
29.48 0.0484572
29.685 0.0360251
29.89 0.0634809
30.095 0.258597
30.3 0.888705
30.505 0.257318
30.71 0.082043
30.915 0.0487664
31.12 0.0658459
31.325 0.075998
31.53 0.00329551
31.735 0.0297149
31.94 0.0498367
32.145 0.0542288
32.35 0.0411135
32.555 0.0337786
32.76 0.0350308
32.965 0.0328584
33.17 0.0267154
33.375 0.0430977
33.58 0.0479564
33.785 0.0495689
33.99 0.0229308
34.195 0.0356629
34.4 0.038239
34.605 0.0302995
34.81 0.128393
35.015 0.201076
35.22 0.0929173
35.425 0.0554517
35.63 0.0469295
35.835 0.0462252
36.04 0.0503455
36.245 0.068075
36.45 0.468043
36.655 0.519937
36.86 0.06965
37.065 0.0281362
37.27 0.0681225
37.475 0.143776
37.68 0.413731
37.885 0.188692
38.09 0.0707173
38.295 0.0471329
38.5 0.0170154
38.705 0.0546693
38.91 0.0820194
39.115 0.0562937
39.32 0.0398127
39.525 0.0324766
39.73 0.0197253
39.935 0.0140401
40.14 0.0268645
40.345 0.0131613
40.55 0.0490249
40.755 0.0410094
40.96 0.0314072
41.165 -0.00259287
41.37 0.00872021
41.575 0.0472436
41.78 0.297078
41.985 0.0301793
42.19 0.0193522
42.395 -0.0114655
42.6 0.0166491
42.805 0.0250344
43.01 0.0154784
43.215 -0.0149345
43.42 0.0391654
43.625 0.0317915
43.83 0.0163593
44.035 0.0133015
44.24 0.013001
44.445 0.0137898
44.65 0.00589432
44.855 0.144951
45.06 0.065232
45.265 0.0388476
45.47 3.94781e-05
45.675 -0.00637344
45.88 0.0180424
46.085 0.00899411
46.29 0.0113689
46.495 0.00226595
46.7 0.0130244
46.905 0.0110525
47.11 0.00034091
47.315 -0.00581936
47.52 0.0172497
47.725 0.0519311
47.93 0.106194
48.135 0.0774354
48.34 0.234377
48.545 0.391269
48.75 0.141834
48.955 0.0412375
49.16 0.0537655
49.365 0.0805876
49.57 0.0755736
49.775 0.0205435
49.98 0.0220007
50.185 0.0222486
50.39 0.0825408
50.595 0.218442
50.8 0.131717
51.005 0.0330197
51.21 0.0110284
51.415 -0.00854741
51.62 0.00521826
51.825 0.0222575
52.03 0.0242344
52.235 0.0844543
52.44 0.0702912
52.645 0.0285041
52.85 0.0137218
53.055 0.00369912
53.26 0.00180338
53.465 0.0118626
53.67 0.0231305
53.875 0.0246138
54.08 0.0737522
54.285 0.0563615
54.49 0.0210542
54.695 0.0207709
54.9 0.0269322
55.105 0.00307675
55.31 -0.0154619
55.515 0.011228
55.72 0.0152342
55.925 0.0150901
56.13 -0.00530818
56.335 -0.00219202
56.54 0.0152095
56.745 0.0147483
56.95 0.0191971
57.155 0.0301337
57.36 0.0248489
57.565 0.0156246
57.77 0.0358373
57.975 0.0360646
58.18 0.0833621
58.385 0.0667483
58.59 0.0356957
58.795 0.0213654
59 0.0287913
59.205 0.00228541
59.41 0.0178678
59.615 0.00765242
59.82 0.0176833
60.025 -0.00668426
60.23 0.0273277
60.435 0.0143415
60.64 0.0220289
60.845 0.0285212
61.05 0.0262279
61.255 0.011614
61.46 0.00626637
61.665 0.014146
61.87 0.0313692
62.075 0.0670615
62.28 0.0634471
62.485 0.0425787
62.69 0.0533106
62.895 0.0623486
63.1 0.0860577
63.305 0.0682765
63.51 0.053478
63.715 0.0292799
63.92 0.0376159
64.125 0.0117897
64.33 0.0275633
64.535 0.0281126
64.74 0.0158383
64.945 0.0294704
65.15 0.0191639
65.355 0.0477027
65.56 0.0235998
65.765 0.0246874
65.97 0.0303168
66.175 0.0144524
66.38 0.00835084
66.585 0.0104224
66.79 0.0202173
66.995 0.00181132
67.2 0.00794129
67.405 0.0153055
67.61 0.0214094
67.815 0.0159531
68.02 9.38786e-05
68.225 0.0173509
68.43 0.0285687
68.635 0.0252272
68.84 0.00910684
69.045 0.01182
69.25 -0.00302769
69.455 0.00645624
69.66 0.0190228
69.865 0.0166783
70.07 0.0113098
70.275 0.0290238
70.48 0.0482837
70.685 0.0675066
70.89 0.0305634
71.095 0.0318031
71.3 0.0256593
71.505 0.090066
71.71 0.185777
71.915 0.190523
72.12 0.104655
72.325 0.0542427
72.53 0.023776
72.735 0.00922942
72.94 0.0138086
73.145 0.0110452
73.35 0.00588658
73.555 -0.0131808
73.76 -0.0150257

File: 2018-08-28T17_28_06.885285+00_00_LBL.xy
'Id: "" Comment: "Integrate frame perovskite0_01_001.gfrmwith cursor Wedge Cursor #1" Operator: "UC Berkeley" Anode: "Co" Scantype: "TwoTheta" TimePerStep: "300"
13.735 -0.0360325
13.925 0.0371956
14.115 0.00829452
14.305 0.044737
14.495 0.119528
14.685 1.28355
14.875 0.48519
15.065 0.0135527
15.255 0.0796021
15.445 0.0363421
15.635 0.0350133
15.825 0.0788569
16.015 0.0702054
16.205 0.0627309
16.395 0.0926432
16.585 0.0650438
16.775 0.0586485
16.965 0.0532137
17.155 0.0272104
17.345 0.0629635
17.535 0.108271
17.725 0.0829709
17.915 0.0540044
18.105 0.0764773
18.295 0.00671215
18.485 0.0304911
18.675 0.0537902
18.865 0.0316879
19.055 0.0720234
19.245 0.0465205
19.435 0.116426
19.625 0.0705783
19.815 0.0761781
20.005 0.0401738
20.195 0.0992331
20.385 0.059822
20.575 0.0125192
20.765 0.0516763
20.955 0.03132
21.145 0.0764085
21.335 0.0915546
21.525 0.078131
21.715 0.07697
21.905 0.0643607
22.095 0.0529773
22.285 0.0137074
22.475 0.0441535
22.665 0.0628039
22.855 0.0403161
23.045 0.0217821
23.235 0.0378415
23.425 0.0654991
23.615 0.0374605
23.805 0.058228
23.995 0.0330479
24.185 0.0418801
24.375 0.0220305
24.565 0.0297575
24.755 0.0570754
24.945 0.0327083
25.135 0.0419156
25.325 0.0386163
25.515 0.057404
25.705 0.0344095
25.895 0.0365506
26.085 0.0226679
26.275 0.0871379
26.465 0.0589078
26.655 0.0532591
26.845 0.0444784
27.035 0.0229571
27.225 0.0705068
27.415 0.000182064
27.605 0.0329001
27.795 0.0625845
27.985 0.103124
28.175 0.0154256
28.365 0.0136129
28.555 0.00368932
28.745 0.0249885
28.935 0.00528122
29.125 0.0779312
29.315 0.0666412
29.505 0.0126084
29.695 0.165022
29.885 0.0323063
30.075 0.258901
30.265 0.264202
30.455 0.0194142
30.645 0.0372368
30.835 0.00309984
31.025 0.0415178
31.215 0.0196703
31.405 0.0150305
31.595 0.0414857
31.785 0.0116331
31.975 -0.0183648
32.165 -0.0103714
32.355 -0.00215598
32.545 0.0351046
32.735 0.0116581
32.925 0.0446602
33.115 0.023801
33.305 0.00437195
33.495 0.0101795
33.685 0.0493367
33.875 0.0398035
34.065 0.0493955
34.255 0.00640922
34.445 0.0566569
34.635 0.0559597
34.825 0.0373349
35.015 0.0257023
35.205 0.0459895
35.395 0.0239858
35.585 0.0291891
35.775 0.0274087
35.965 0.0153442
36.155 0.0242232
36.345 0.0055883
36.535 0.0145988
36.725 -1.18711e-05
36.915 -0.0199745
37.105 -0.00091066
37.295 0.0116845
37.485 0.0029706
37.675 -0.00436629
37.865 0.0184692
38.055 0.000920728
38.245 0.010109
38.435 -0.0176049
38.625 -0.00682646
38.815 0.00621759
39.005 -0.00697727
39.195 0.0056587
39.385 0.00864744
39.575 0.00615411
39.765 0.0234613
39.955 0.269345
40.145 0.179217
40.335 0.0366251
40.525 0.0252991
40.715 -0.00645929
40.905 -0.0171765
41.095 -0.00131285
41.285 -0.0150474
41.475 -0.0030622
41.665 0.00144879
41.855 -0.00699694
42.045 0.0157748
42.235 0.00649264
42.425 -0.0148168
42.615 0.012514
42.805 -0.00813552
42.995 0.0318769
43.185 -0.00113115
43.375 0.0250249
43.565 0.0321747
43.755 -0.00993277
43.945 0.051085
44.135 -0.00415736
44.325 0.0185209
44.515 0.0203215
44.705 0.0343469
44.895 0.0757172
45.085 0.294008
45.275 0.317164
45.465 0.0562112
45.655 0.0237005
45.845 0.0489296
46.035 0.112624
46.225 0.556314
46.415 0.220932
46.605 0.0541735
46.795 0.0284208
46.985 0.0225151
47.175 0.00185304
47.365 0.0035067
47.555 -0.00387215
47.745 0.00335066
47.935 0.0286621
48.125 -0.000165476
48.315 0.0122551
48.505 0.00426685
48.695 0.063473
48.885 0.0780124
49.075 0.013368
49.265 0.00730164
49.455 -0.00751895
49.645 -0.0047461
49.835 -0.00967423
50.025 0.00430982
50.215 -0.00409324
50.405 0.0125909
50.595 0.00703603
50.785 0.00545627
50.975 0.00728968
51.165 -0.00922186
51.355 0.00265987
51.545 -0.0126537
51.735 -0.00210708
51.925 -0.00756756
52.115 -0.00858299
52.305 0.0123854
52.495 0.0117121
52.685 0.0198644
52.875 0.0396934
53.065 0.0813053
53.255 0.0362123
53.445 -0.00863955
53.635 -0.00683325
53.825 0.00278133
54.015 0.0128034
54.205 0.0092301
54.395 0.0122352
54.585 -0.00548054
54.775 0.0104776
54.965 0.00629511
55.155 0.0195786
55.345 0.00775182
55.535 0.0197463
55.725 0.00311531
55.915 0.0319796
56.105 0.0711077
56.295 0.09233
56.485 0.0211341
56.675 0.0115978
56.865 -0.00126607
57.055 0.00726611
57.245 0.0140947
57.435 -0.00054624
57.625 0.00699585
57.815 0.0141393
58.005 0.0202413
58.195 0.0115388
58.385 0.0171714
58.575 0.0136566
58.765 0.0132007
58.955 -0.0083321
59.145 -0.0149753
59.335 0.0133253
59.525 -0.00262252
59.715 0.0125196
59.905 0.00178443
60.095 -0.00108951
60.285 -0.00616952
60.475 -0.00559498
60.665 0.00316173
60.855 0.0102443
61.045 0.0186783
61.235 0.00938665
61.425 0.074367
61.615 0.249945
61.805 0.142364
61.995 0.0327882
62.185 0.0118987
62.375 0.0203611
62.565 0.0536481
62.755 0.0975373
62.945 0.0590053
63.135 0.00749089
63.325 0.0185259
63.515 -0.00422026
63.705 0.000697913
63.895 0.00097962
64.085 0.00718419
64.275 0.00378278
64.465 0.0214856
64.655 0.00520066
64.845 0.0124035
65.035 0.018287
65.225 -0.00516255
65.415 -0.0119717
65.605 0.0143452
65.795 0.00989886
65.985 0.0127279
66.175 0.00983195
66.365 0.036092
66.555 0.105264
66.745 0.086164
66.935 0.0394357
67.125 0.014039
67.315 -0.00432869
67.505 -0.00500924
67.695 0.00497055
67.885 0.011642
68.075 0.0140314
68.265 0.0278666
68.455 -0.00196794
68.645 -0.0078482
68.835 0.00588796
69.025 -0.00285964
69.215 0.00407352
69.405 0.00262663
69.595 0.000821289
69.785 0.00569361
69.975 0.0033321
70.165 -0.00442024
70.29 -0.0155967

File: 2018-09-10T22_54_34.498665+00_00_LBL.xy
'Id: "" Comment: "Integrate frame Perovskite0_01_001.gfrmwith cursor Wedge Cursor #1" Operator: "UC Berkeley" Anode: "Co" Scantype: "TwoTheta" TimePerStep: "900"
14.97 -0.0164758
15.17 -0.000232134
15.37 0.00612314
15.57 0.0202573
15.77 0.0211562
15.97 0.116934
16.17 0.167121
16.37 0.00987259
16.57 0.0146129
16.77 0.0167277
16.97 0.0167067
17.17 0.014439
17.37 -0.00535524
17.57 0.0202304
17.77 0.00061825
17.97 0.0220834
18.17 0.00195055
18.37 -0.00241157
18.57 0.0287181
18.77 0.0223094
18.97 0.0110072
19.17 0.0243389
19.37 0.0214092
19.57 0.0232251
19.77 0.00617972
19.97 -0.00292699
20.17 0.024572
20.37 0.0292915
20.57 -0.00842712
20.77 0.00485095
20.97 0.0115932
21.17 0.0134389
21.37 0.00226975
21.57 -0.00599505
21.77 0.0079755
21.97 0.0195965
22.17 0.0240006
22.37 0.0177535
22.57 0.0255485
22.77 0.0478385
22.97 0.0627033
23.17 0.00624612
23.37 0.0406502
23.57 0.0224161
23.77 0.0250353
23.97 0.0245375
24.17 0.0152629
24.37 0.0219954
24.57 0.0245749
24.77 0.0186248
24.97 0.0353425
25.17 0.0261228
25.37 0.0446965
25.57 0.0803418
25.77 0.153478
25.97 0.421347
26.17 0.858525
26.37 0.476219
26.57 0.128238
26.77 0.0542581
26.97 0.0277985
27.17 0.0157275
27.37 0.0100238
27.57 0.0112585
27.77 0.0129797
27.97 0.0384065
28.17 0.103066
28.37 0.0289097
28.57 0.00999642
28.77 0.00160183
28.97 0.0133841
29.17 0.00836346
29.37 0.0164294
29.57 0.0440944
29.77 -0.000327316
29.97 -0.00340835
30.17 0.000167618
30.37 0.177123
30.57 0.237503
30.77 0.015824
30.97 -0.0119461
31.17 0.00657472
31.37 0.00521152
31.57 -0.0120544
31.77 0.00505467
31.97 -0.00535159
32.17 0.000319371
32.37 0.0604592
32.57 0.881808
32.77 0.245054
32.97 0.0236977
33.17 0.00947174
33.37 0.00809886
33.57 0.0126746
33.77 0.00670222
33.97 -0.00538312
34.17 -0.00796275
34.37 0.00206589
34.57 0.00416639
34.77 0.0117285
34.97 -0.00391069
35.17 0.00978312
35.37 0.0632641
35.57 0.182849
35.77 0.0167957
35.97 0.000394173
36.17 0.0106024
36.37 0.0926113
36.57 0.681931
36.77 0.308623
36.97 0.00960432
37.17 -0.00267353
37.37 0.00177254
37.57 -0.00476427
37.77 0.000526706
37.97 0.0232962
38.17 0.197941
38.37 0.10944
38.57 0.0108623
38.77 0.0119771
38.97 0.0560624
39.17 0.0781121
39.37 0.133401
39.57 0.146
39.77 0.097857
39.97 0.0724776
40.17 0.0820567
40.37 0.0461444
40.57 0.00708751
40.77 0.00258105
40.97 -0.0057594
41.17 -0.00353624
41.37 0.00584052
41.57 -0.00709598
41.77 0.0116751
41.97 0.0246603
42.17 0.00442635
42.37 -0.00388428
42.57 -0.000359509
42.77 -0.00607461
42.97 -0.00519846
43.17 -0.00415165
43.37 -0.000659948
43.57 0.00413834
43.77 0.00480743
43.97 -0.00140355
44.17 0.00095866
44.37 -0.00694699
44.57 -0.00845564
44.77 0.00144075
44.97 -0.00609252
45.17 0.00011339
45.37 0.0135199
45.57 0.0501123
45.77 0.00618445
45.97 -0.000668932
46.17 0.00518544
46.37 0.015038
46.57 0.0470687
46.77 0.191518
46.97 0.151487
47.17 0.021002
47.37 -0.00599953
47.57 -0.0034909
47.77 -0.00895996
47.97 -0.0010029
48.17 0.00807227
48.37 0.0150486
48.57 0.129443
48.77 0.142622
48.97 0.041983
49.17 0.00966933
49.37 0.0186447
49.57 0.053149
49.77 0.22706
49.97 0.255766
50.17 0.0479545
50.37 0.0171062
50.57 0.0147826
50.77 0.051316
50.97 0.0141623
51.17 -0.0046879
51.37 -0.00069461
51.57 -0.00392125
51.77 -0.00964403
51.97 -0.00313593
52.17 -0.000354442
52.37 0.0027172
52.57 0.0132717
52.77 0.0327703
52.97 0.0158113
53.17 0.00290421
53.37 -0.00030622
53.57 0.0213342
53.77 0.0136348
53.97 0.00340099
54.17 0.00273318
54.37 0.00343953
54.57 0.00222077
54.77 0.00413758
54.97 0.0212478
55.17 0.0341152
55.37 0.0519753
55.57 0.0976689
55.77 0.0544107
55.97 0.0354056
56.17 0.0138624
56.37 -0.00037845
56.57 0.000334345
56.77 -0.00250392
56.97 0.0066387
57.17 -0.0036653
57.37 -0.0047396
57.57 0.00379659
57.77 0.00790115
57.97 0.0427746
58.17 0.0692137
58.37 0.0932128
58.57 0.0718084
58.77 0.019639
58.97 0.00439658
59.17 0.00585856
59.37 0.0036563
59.57 0.00913721
59.77 -0.00781832
59.97 -0.00686449
60.17 0.00879323
60.37 0.00458675
60.57 0.0125357
60.77 0.0332507
60.97 0.074162
61.17 0.0467284
61.37 0.00765318
61.57 0.00980255
61.77 -0.00069831
61.97 0.00809939
62.17 0.0204515
62.37 0.0252222
62.57 0.0381115
62.77 0.0145876
62.97 0.0247769
63.17 0.0193161
63.37 0.0300179
63.57 0.0757541
63.77 0.0310471
63.97 0.00886577
64.17 0.00699571
64.37 -0.00213697
64.57 0.00411994
64.77 0.00889276
64.97 0.00171877
65.17 0.00490931
65.37 0.00673396
65.57 0.00461039
65.77 0.0033151
65.97 0.00641774
66.17 0.0120837
66.37 0.0112413
66.57 0.028578
66.77 0.0432505
66.97 0.0193077
67.17 0.0082554
67.37 0.00876335
67.57 -0.00132842
67.77 -0.00310536
67.97 0.00231371
68.17 0.0105658
68.37 0.0294081
68.57 0.0359626
68.77 0.0269415
68.97 0.0246868
69.17 0.0129203
69.37 -0.00294275
69.57 -0.00330479
69.77 0.000321185
69.97 0.0024063
70.17 0.00731671
70.37 0.0149104
70.57 0.0376941
70.77 0.119191
70.97 0.253954
71.17 0.13311
71.37 0.0256584
71.57 0.0200297
71.77 0.00961146
71.97 0.0126284
72.17 0.0138077
72.37 0.0398741
72.57 0.0218656
72.77 0.00726089
72.97 0.00576675
73.17 0.0285236
73.37 0.0292018
73.57 0.0263181
73.77 0.00971304
73.97 0.00480381
74.17 0.00609108
74.37 0.000845807
74.57 -0.00274116
74.77 0.00235014
74.835 -0.00786618

File: 2018-09-17T21_43_06.730215+00_00_LBL.xy
'Id: "" Comment: "Integrate frame perovskite1_03_001.gfrmwith cursor Wedge Cursor #6" Operator: "UC Berkeley" Anode: "Co" Scantype: "TwoTheta" TimePerStep: "300"
14.16 -0.0293128
14.355 0.0100457
14.55 0.0501473
14.745 0.0701261
14.94 0.0940728
15.135 0.0444584
15.33 0.0514312
15.525 0.0994695
15.72 0.0839046
15.915 0.070963
16.11 0.0333999
16.305 0.0834738
16.5 0.0691725
16.695 0.0646178
16.89 0.0870208
17.085 0.0404055
17.28 0.0144694
17.475 0.0309751
17.67 0.0313824
17.865 -0.00376733
18.06 0.0540963
18.255 0.0656816
18.45 -0.0121173
18.645 0.0315831
18.84 0.0215765
19.035 0.0465023
19.23 0.0440182
19.425 0.0357916
19.62 0.000860527
19.815 0.0554386
20.01 0.012935
20.205 0.0787983
20.4 0.0416396
20.595 0.032017
20.79 0.0271825
20.985 0.0492023
21.18 0.0575904
21.375 0.0261046
21.57 0.0147462
21.765 0.0623723
21.96 0.0700705
22.155 0.0242343
22.35 0.0784432
22.545 0.045101
22.74 0.0624787
22.935 0.00293868
23.13 0.00531801
23.325 0.0327153
23.52 0.0331776
23.715 -0.0203887
23.91 0.0423513
24.105 0.0139576
24.3 0.041575
24.495 0.0352014
24.69 0.0439088
24.885 0.0355787
25.08 0.0666871
25.275 0.0377623
25.47 0.0311536
25.665 0.027673
25.86 0.00777375
26.055 0.109105
26.25 0.194065
26.445 0.101369
26.64 0.0512655
26.835 0.0649626
27.03 0.0382961
27.225 0.00490675
27.42 -0.0238498
27.615 0.0472743
27.81 0.0439244
28.005 0.00462002
28.2 0.0228829
28.395 -0.00276176
28.59 -0.00784756
28.785 0.0297901
28.98 0.0131498
29.175 0.0648432
29.37 0.00957218
29.565 0.0441024
29.76 0.0900321
29.955 0.961964
30.15 1.33956
30.345 0.077353
30.54 0.0105085
30.735 0.0308406
30.93 0.0235628
31.125 0.0346633
31.32 0.0886687
31.515 0.0286707
31.71 0.0507389
31.905 -0.0015157
32.1 -0.00531107
32.295 0.0415058
32.49 0.0431644
32.685 0.00880235
32.88 -0.00832868
33.075 -0.0228381
33.27 0.0308064
33.465 -0.00212737
33.66 0.0189356
33.855 0.00610156
34.05 0.0067792
34.245 0.0154818
34.44 -0.00545301
34.635 0.00769207
34.83 -0.0101736
35.025 0.00887209
35.22 -0.00682499
35.415 -0.00252459
35.61 0.00907831
35.805 0.00109539
36 0.0115317
36.195 0.00284413
36.39 -0.0103065
36.585 0.00890022
36.78 0.00260605
36.975 0.0276488
37.17 -0.00416982
37.365 0.0366234
37.56 0.186572
37.755 2.00211
37.95 1.74191
38.145 0.973164
38.34 0.113964
38.535 0.0453484
38.73 0.0111088
38.925 0.00324328
39.12 0.00106
39.315 0.0171809
39.51 0.0250183
39.705 0.0112787
39.9 0.010663
40.095 0.0118121
40.29 0.01161
40.485 0.0143042
40.68 0.00496419
40.875 -0.0138685
41.07 0.0337506
41.265 -0.00825485
41.46 0.0103028
41.655 -0.00103262
41.85 0.00131688
42.045 0.00986174
42.24 0.0142266
42.435 0.0163969
42.63 0.0181638
42.825 0.00519956
43.02 -0.00285529
43.215 0.00402089
43.41 0.00766011
43.605 0.0292312
43.8 0.0271087
43.995 -0.000945192
44.19 0.0229971
44.385 0.0133702
44.58 0.0267124
44.775 -0.00745774
44.97 0.0313574
45.165 0.0117081
45.36 0.0312637
45.555 0.00832978
45.75 0.0787121
45.945 0.00806335
46.14 -0.00078149
46.335 0.00917073
46.53 0.0311097
46.725 0.0335497
46.92 0.00790659
47.115 0.0128318
47.31 0.0102901
47.505 -0.0175746
47.7 0.0147282
47.895 -0.00486596
48.09 -0.00923095
48.285 -0.0066182
48.48 0.00358609
48.675 -0.0120858
48.87 0.0165989
49.065 0.00477064
49.26 -0.0111549
49.455 0.0067726
49.65 -0.000278643
49.845 0.00123553
50.04 0.0128683
50.235 0.00321959
50.43 0.0194034
50.625 -0.00746569
50.82 -0.00798133
51.015 0.00158128
51.21 0.0748607
51.405 0.0910651
51.6 0.0254608
51.795 0.0238126
51.99 0.0171225
52.185 0.00443571
52.38 0.006181
52.575 0.00780405
52.77 0.00161688
52.965 -0.00671644
53.16 -0.000696848
53.355 0.0116986
53.55 0.00900375
53.745 0.000236761
53.94 0.0241336
54.135 -0.0103416
54.33 0.00252506
54.525 -0.00583057
54.72 -0.000272804
54.915 -0.00740747
55.11 -0.000161488
55.305 0.0113149
55.5 0.012627
55.695 0.0100945
55.89 -0.00657883
56.085 -0.00904439
56.28 -0.00280274
56.475 0.0162093
56.67 -0.00238309
56.865 -0.000656791
57.06 0.0218643
57.255 0.0172683
57.45 0.0165333
57.645 0.0263855
57.84 0.012498
58.035 0.0208175
58.23 -0.00151457
58.425 0.00376452
58.62 -0.00398586
58.815 -0.00440111
59.01 0.00926888
59.205 0.0247633
59.4 0.00388088
59.595 0.0145194
59.79 0.0155318
59.985 -0.0130694
60.18 0.00271844
60.375 0.0267821
60.57 0.00350355
60.765 0.0231994
60.96 0.0205392
61.155 0.00301955
61.35 -0.000307031
61.545 0.0126235
61.74 0.0137286
61.935 0.0483909
62.13 0.11805
62.325 1.24122
62.52 0.719185
62.715 0.260519
62.91 0.0191277
63.105 0.0170274
63.3 -0.00951631
63.495 0.00430617
63.69 0.00487887
63.885 0.00458
64.08 0.0273365
64.275 -0.00477525
64.47 -0.000267742
64.665 -0.00597656
64.86 -0.00381671
65.055 0.00255926
65.25 0.0114783
65.445 -0.00359205
65.64 -0.00375465
65.835 0.00188015
66.03 0.0171545
66.225 0.0148866
66.42 -0.0031254
66.615 0.00498949
66.81 0.0043224
67.005 -0.000665843
67.2 0.00518203
67.395 0.0188238
67.59 0.0756911
67.785 0.0521245
67.98 0.0492414
68.175 0.0298905
68.37 0.00422601
68.565 0.0142274
68.76 -0.000952287
68.955 0.0221228
69.15 0.0220158
69.345 0.015029
69.54 0.0241168
69.735 0.0100466
69.93 0.00607488
70.125 0.00614772
70.32 0.00271244
70.515 -0.000152185
70.71 0.0111835
70.905 0.00994971
71.1 0.0240603
71.295 0.0473245
71.49 0.0153316
71.685 -0.01463
71.845 -0.0160525