Folder: rapid/data/xrd/xy (part 2)

File: 2018-07-06T15_40_16.425303+00_00_LBL.xy
'Id: "" Comment: "Integrate frame perovskite1_02_001.gfrmwith cursor Wedge Cursor #3" Operator: "UC Berkeley" Anode: "Co" Scantype: "TwoTheta" TimePerStep: "300"
13.525 -0.0327044
13.73 0.0313764
13.935 0.0848786
14.14 0.0428296
14.345 0.0896126
14.55 0.0854361
14.755 0.0836331
14.96 0.110031
15.165 0.0761172
15.37 0.135474
15.575 0.15867
15.78 0.0610982
15.985 0.122942
16.19 0.0635275
16.395 0.0865702
16.6 0.0761135
16.805 0.0764623
17.01 0.00609925
17.215 0.0926284
17.42 0.0845188
17.625 0.0661132
17.83 0.0323123
18.035 0.0961507
18.24 0.0441108
18.445 0.122182
18.65 0.108762
18.855 0.0511259
19.06 0.124604
19.265 0.0592095
19.47 0.095874
19.675 0.0356078
19.88 0.0808493
20.085 0.0388626
20.29 0.0727497
20.495 0.0526194
20.7 0.059467
20.905 0.0481115
21.11 0.111473
21.315 0.0473788
21.52 0.0559918
21.725 0.116457
21.93 0.000241976
22.135 0.00476361
22.34 -0.00230728
22.545 0.054607
22.75 0.101459
22.955 0.0354175
23.16 0.0131117
23.365 0.044008
23.57 0.00898268
23.775 0.0298364
23.98 0.0725722
24.185 0.0955562
24.39 -0.00650397
24.595 0.0346194
24.8 0.0507984
25.005 0.0595866
25.21 0.127885
25.415 0.140466
25.62 0.15416
25.825 0.22562
26.03 0.53501
26.235 1.45194
26.44 0.767649
26.645 0.197324
26.85 0.14035
27.055 0.0758507
27.26 0.100133
27.465 0.0281077
27.67 0.0490736
27.875 0.0176492
28.08 0.044675
28.285 0.04249
28.49 0.0313816
28.695 0.0609282
28.9 0.0711382
29.105 0.0508817
29.31 0.0330671
29.515 0.0199503
29.72 0.0756175
29.925 -0.0214068
30.13 0.0904314
30.335 0.226195
30.54 0.0377295
30.745 0.0262808
30.95 0.0432941
31.155 0.0366409
31.36 0.00434952
31.565 -0.00256796
31.77 0.0531528
31.975 0.0451197
32.18 -0.0133316
32.385 0.0516067
32.59 0.0295426
32.795 -0.0183077
33 0.0504749
33.205 0.0371965
33.41 -0.0145659
33.615 0.0190453
33.82 0.00673006
34.025 0.0178524
34.23 0.00524672
34.435 0.00656762
34.64 0.0406208
34.845 0.144854
35.05 0.204951
35.255 0.0396364
35.46 0.011914
35.665 0.001212
35.87 -0.00418226
36.075 0.00220133
36.28 0.0158839
36.485 0.177754
36.69 0.086985
36.895 0.0104595
37.1 0.0126937
37.305 0.0179242
37.51 0.0504225
37.715 0.0708826
37.92 0.0124561
38.125 0.005957
38.33 0.0198136
38.535 0.0279022
38.74 0.0665398
38.945 0.0505768
39.15 0.101627
39.355 0.204984
39.56 0.273268
39.765 0.271166
39.97 0.14964
40.175 0.0894046
40.38 0.0460317
40.585 0.0444776
40.79 0.0214056
40.995 0.0362845
41.2 0.0206343
41.405 0.0376704
41.61 0.0594359
41.815 0.0188015
42.02 0.00260943
42.225 0.0329065
42.43 0.0182
42.635 0.0370019
42.84 0.0540371
43.045 0.0204145
43.25 0.0448293
43.455 0.0383895
43.66 0.0470404
43.865 0.00545406
44.07 -0.013675
44.275 0.0355708
44.48 -0.000812261
44.685 0.0193392
44.89 0.0447561
45.095 0.0495408
45.3 0.0175137
45.505 0.0174493
45.71 0.0116463
45.915 0.0205657
46.12 0.0239399
46.325 0.0342307
46.53 0.0241618
46.735 0.0316694
46.94 -0.00612174
47.145 0.0110507
47.35 0.00774022
47.555 0.0319728
47.76 0.0678688
47.965 0.104417
48.17 0.0490946
48.375 0.0943459
48.58 0.0850102
48.785 -0.00149547
48.99 -0.00995673
49.195 0.0150044
49.4 0.0223564
49.605 0.0155569
49.81 0.0221132
50.015 -0.00245802
50.22 0.00234886
50.425 0.0480658
50.63 0.0614821
50.835 0.0226171
51.04 0.0213317
51.245 0.00262742
51.45 0.0107172
51.655 0.00509829
51.86 0.0244179
52.065 0.0769069
52.27 0.125619
52.475 0.00481572
52.68 0.0175585
52.885 0.0190886
53.09 0.0112881
53.295 0.00575115
53.5 0.00546699
53.705 0.00917855
53.91 0.0256926
54.115 0.0339892
54.32 0.00591388
54.525 -0.0054153
54.73 0.00461424
54.935 0.0177652
55.14 0.053445
55.345 0.0555325
55.55 0.105653
55.755 0.102842
55.96 0.0794086
56.165 0.0386983
56.37 0.0306784
56.575 0.0235225
56.78 0.0140764
56.985 -0.000415238
57.19 0.0221
57.395 0.0830654
57.6 0.0618464
57.805 0.0230342
58.01 0.0321268
58.215 0.110471
58.42 0.0714088
58.625 0.0193364
58.83 0.01132
59.035 -0.000481731
59.24 0.0339732
59.445 0.0319243
59.65 0.0353187
59.855 0.0237279
60.06 0.035643
60.265 0.000531452
60.47 0.00528232
60.675 0.00203633
60.88 0.0182853
61.085 0.0325849
61.29 0.0188659
61.495 0.0200856
61.7 0.0194534
61.905 0.00138759
62.11 0.0735324
62.315 0.0859701
62.52 0.0662911
62.725 0.0680658
62.93 0.0866444
63.135 0.0202472
63.34 0.0120179
63.545 0.0198489
63.75 -0.0149159
63.955 0.0158478
64.16 -0.000914861
64.365 0.0218128
64.57 0.00316135
64.775 0.00637537
64.98 0.0311208
65.185 0.0324549
65.39 0.0410534
65.595 0.0299471
65.8 0.0272734
66.005 0.00973755
66.21 0.021621
66.415 0.00391597
66.62 0.0146387
66.825 0.0202256
67.03 -0.005292
67.235 0.0143859
67.44 0.0251502
67.645 0.00344842
67.85 -0.00974458
68.055 0.016666
68.26 0.0343516
68.465 0.0324617
68.67 0.0266139
68.875 0.0403324
69.08 0.0237754
69.285 0.0176756
69.49 0.0161544
69.695 0.0168889
69.9 0.00112122
70.105 0.0181481
70.31 0.01815
70.515 -0.0104743
70.72 0.0129204
70.925 0.0129175
71.13 0.0126793
71.335 0.0267693
71.54 0.0618003
71.745 0.0437164
71.95 0.0183794
72.155 0.00567719
72.36 0.00330384
72.565 0.00827417
72.77 0.0260471
72.975 0.0213227
73.18 0.0569144
73.385 0.0338605
73.59 0.037168
73.795 0.0778735
74 0.0383536
74.205 0.0152766
74.41 0.00114293
74.6 -0.013984

File: 2018-07-09T22_47_01.237679+00_00_LBL.xy
'Id: "" Comment: "Integrate frame perovskite1_01_001.gfrmwith cursor Wedge Cursor #2" Operator: "UC Berkeley" Anode: "Co" Scantype: "TwoTheta" TimePerStep: "300"
13.765 -0.030313
13.965 0.0296195
14.165 0.080424
14.365 0.0436319
14.565 0.0396176
14.765 0.0776925
14.965 0.0231957
15.165 0.0254849
15.365 0.0867949
15.565 0.0517167
15.765 0.0424326
15.965 0.0348636
16.165 0.350231
16.365 0.14024
16.565 0.0855014
16.765 0.0558584
16.965 0.0638883
17.165 0.0361638
17.365 0.0363318
17.565 0.0533913
17.765 0.0696366
17.965 0.0641206
18.165 0.0662823
18.365 0.123792
18.565 0.0582733
18.765 0.0484295
18.965 0.0388698
19.165 0.0604019
19.365 0.052938
19.565 0.101155
19.765 0.0745645
19.965 0.0547827
20.165 0.0994588
20.365 0.0907838
20.565 0.0817889
20.765 0.0154305
20.965 0.0771872
21.165 0.067037
21.365 0.0549681
21.565 0.0799519
21.765 0.0513208
21.965 0.0168539
22.165 0.0878039
22.365 0.0971345
22.565 0.062349
22.765 0.0820473
22.965 0.0389966
23.165 0.115859
23.365 0.0988386
23.565 0.0399842
23.765 0.0606075
23.965 0.072373
24.165 0.0818802
24.365 0.0884767
24.565 0.0431871
24.765 0.0812969
24.965 0.041211
25.165 0.0862895
25.365 0.10971
25.565 0.0887142
25.765 0.170682
25.965 0.23435
26.165 0.589567
26.365 0.632887
26.565 0.186226
26.765 0.0941835
26.965 0.0381236
27.165 0.0704549
27.365 0.122554
27.565 0.0423796
27.765 0.0200334
27.965 0.0712935
28.165 0.0793259
28.365 0.0951406
28.565 0.185453
28.765 0.0317405
28.965 0.04463
29.165 0.0312268
29.365 0.00273261
29.565 -0.00248194
29.765 0.0432877
29.965 0.0731886
30.165 0.0370368
30.365 0.0221418
30.565 -0.00686934
30.765 0.0121602
30.965 0.0273945
31.165 0.0463143
31.365 0.0384138
31.565 0.0185797
31.765 0.0154436
31.965 0.0401031
32.165 0.0514071
32.365 0.0884327
32.565 0.176929
32.765 9.61235
32.965 0.552049
33.165 1.13123
33.365 0.206913
33.565 0.0860281
33.765 0.0503072
33.965 0.0362674
34.165 0.0358576
34.365 0.00978692
34.565 0.000276186
34.765 0.0081517
34.965 -0.00546665
35.165 -0.00472247
35.365 -0.01563
35.565 -0.00727774
35.765 0.00157534
35.965 0.136886
36.165 0.0728961
36.365 0.0310912
36.565 0.0319562
36.765 0.147808
36.965 0.375502
37.165 0.568598
37.365 0.143938
37.565 0.0341751
37.765 -0.00987834
37.965 0.00134271
38.165 0.0119149
38.365 0.0290134
38.565 0.0257358
38.765 0.00742939
38.965 0.0257044
39.165 0.0623367
39.365 0.0930141
39.565 0.130637
39.765 0.0975989
39.965 0.071283
40.165 0.0555348
40.365 0.0202273
40.565 0.0538229
40.765 0.120199
40.965 0.0585805
41.165 0.0160499
41.365 -0.000546735
41.565 -0.0138385
41.765 0.0247888
41.965 0.0336532
42.165 0.017793
42.365 0.0209338
42.565 0.0168873
42.765 0.00480154
42.965 0.0212848
43.165 0.00828053
43.365 0.0331074
43.565 0.087589
43.765 0.0364236
43.965 0.0137876
44.165 0.00468075
44.365 0.060813
44.565 0.0179736
44.765 0.0089092
44.965 0.0366642
45.165 0.0234139
45.365 0.0175758
45.565 0.0249787
45.765 0.0642589
45.965 0.0339371
46.165 0.0141856
46.365 0.0194374
46.565 0.00540348
46.765 0.0142232
46.965 0.0412794
47.165 0.105401
47.365 0.56305
47.565 0.924627
47.765 1.74238
47.965 0.0743813
48.165 0.0180117
48.365 0.0223503
48.565 0.0222122
48.765 0.0110332
48.965 0.0198713
49.165 0.00619787
49.365 0.011771
49.565 0.0933128
49.765 0.125248
49.965 0.36428
50.165 0.170396
50.365 0.563102
50.565 0.904574
50.765 0.188433
50.965 0.0305828
51.165 -0.00618112
51.365 0.00924035
51.565 0.0226236
51.765 0.0198201
51.965 0.00240968
52.165 0.0132196
52.365 0.0154491
52.565 0.00440281
52.765 0.0269857
52.965 0.0159405
53.165 0.00974428
53.365 -0.00212306
53.565 0.0310478
53.765 0.0673763
53.965 0.0157904
54.165 0.0103985
54.365 -0.00190319
54.565 0.010972
54.765 -0.0057178
54.965 0.0181974
55.165 0.0291998
55.365 0.0621193
55.565 0.0729809
55.765 0.0789415
55.965 0.0552923
56.165 0.0357201
56.365 0.00253796
56.565 0.031674
56.765 -0.0166349
56.965 0.0140186
57.165 0.0115937
57.365 0.0155274
57.565 -0.0123249
57.765 -0.00837365
57.965 -0.0111522
58.165 -0.00222781
58.365 0.0526598
58.565 0.0159525
58.765 0.0795722
58.965 0.0836565
59.165 0.238892
59.365 0.135577
59.565 0.0125909
59.765 -0.010092
59.965 0.0180451
60.165 0.00497106
60.365 0.0270288
60.565 0.0396805
60.765 0.0249284
60.965 0.025176
61.165 0.129401
61.365 0.0519289
61.565 0.131511
61.765 0.152382
61.965 0.228139
62.165 0.0450022
62.365 0.0140126
62.565 0.022349
62.765 0.0222171
62.965 0.0182118
63.165 0.00392319
63.365 0.0133526
63.565 0.0170914
63.765 0.0160814
63.965 0.0196425
64.165 0.0451775
64.365 0.0436612
64.565 0.0456464
64.765 0.0414932
64.965 0.0224358
65.165 -0.00255468
65.365 0.00497511
65.565 0.0216141
65.765 0.0131451
65.965 0.0224307
66.165 0.0505351
66.365 0.0292178
66.565 0.00412478
66.765 0.00828401
66.965 0.0166871
67.165 -0.00454357
67.365 0.0132397
67.565 0.0120851
67.765 0.0141086
67.965 -0.00234415
68.165 0.000839361
68.365 0.0133806
68.565 0.0185953
68.765 0.0200579
68.965 0.0162031
69.165 0.0288476
69.365 0.0248384
69.565 0.0119051
69.765 0.0217594
69.965 0.00980731
70.165 0.0129821
70.365 0.0119028
70.565 0.00585305
70.765 0.0126942
70.965 0.00508089
71.165 0.0341321
71.365 0.0761941
71.565 0.0836287
71.765 0.167532
71.965 0.216015
72.165 0.149758
72.365 0.0874165
72.565 0.0264771
72.765 0.00719567
72.965 0.00646675
73.165 0.016429
73.365 -0.00440011
73.415 -0.0160773

File: 2018-07-12T19_22_54.635369+00_00_LBL.xy
'Id: "" Comment: "Integrate frame GPbI30_00_001.gfrmwith cursor Wedge Cursor #2" Operator: "UC Berkeley" Anode: "Co" Scantype: "TwoTheta" TimePerStep: "600"
13.76 -0.0220781
13.955 -0.010209
14.15 0.0105076
14.345 0.063276
14.54 0.589757
14.735 0.538691
14.93 0.0603711
15.125 0.0298113
15.32 0.0102763
15.515 0.00709168
15.71 0.0199555
15.905 0.0627063
16.1 -0.00102009
16.295 0.0439698
16.49 0.0774352
16.685 0.0425751
16.88 0.0465877
17.075 0.0336611
17.27 0.0121867
17.465 0.00964073
17.66 0.0403986
17.855 0.00541775
18.05 0.0706341
18.245 0.0115585
18.44 0.0382544
18.635 0.0167885
18.83 0.0501202
19.025 0.0284741
19.22 0.0551417
19.415 0.00245827
19.61 0.0355375
19.805 0.0272371
20 0.0385522
20.195 0.014518
20.39 0.0227918
20.585 0.0447947
20.78 0.00450738
20.975 0.0200112
21.17 0.0522503
21.365 0.0528788
21.56 0.0338637
21.755 0.0409953
21.95 0.00332364
22.145 0.0270761
22.34 0.0339869
22.535 0.0332912
22.73 -0.00483637
22.925 0.0524892
23.12 0.0423669
23.315 0.0113794
23.51 0.0650807
23.705 0.0619683
23.9 -0.0211082
24.095 0.011017
24.29 0.0469513
24.485 0.0177954
24.68 0.0688954
24.875 0.0583259
25.07 0.0583883
25.265 0.0916329
25.46 0.157703
25.655 0.312289
25.85 0.711686
26.045 2.01014
26.24 1.86301
26.435 0.52531
26.63 0.136788
26.825 0.0776672
27.02 0.0763423
27.215 0.049944
27.41 -0.00389857
27.605 0.0288374
27.8 0.0217697
27.995 0.0268528
28.19 0.0449817
28.385 0.0117445
28.58 0.00716197
28.775 0.0215006
28.97 0.00972536
29.165 0.0136001
29.36 0.0869539
29.555 0.314763
29.75 0.0747636
29.945 0.144918
30.14 0.144891
30.335 0.0229616
30.53 0.0275559
30.725 0.00153114
30.92 0.0233528
31.115 0.0181549
31.31 0.0260793
31.505 0.00581043
31.7 -0.00700477
31.895 0.0201636
32.09 0.0223146
32.285 0.0350707
32.48 0.0355182
32.675 0.0364828
32.87 0.0179814
33.065 0.0187882
33.26 0.00717316
33.455 0.0265752
33.65 0.0173375
33.845 0.0109526
34.04 0.0295646
34.235 0.101124
34.43 1.19392
34.625 0.264548
34.82 0.0518736
35.015 0.159291
35.21 0.266872
35.405 0.150799
35.6 0.0676699
35.795 0.038495
35.99 0.018947
36.185 0.00846315
36.38 0.0150046
36.575 -0.000492408
36.77 -0.00965234
36.965 0.0272227
37.16 0.0093166
37.355 -0.00627401
37.55 -0.00995693
37.745 -0.00473561
37.94 -0.00332144
38.135 0.00573828
38.33 0.00578641
38.525 0.00331442
38.72 0.0268109
38.915 0.0876573
39.11 0.164883
39.305 0.28562
39.5 0.340032
39.695 0.38452
39.89 0.621128
40.085 0.153037
40.28 0.0230341
40.475 0.0121965
40.67 0.00434394
40.865 0.0249545
41.06 -0.00898378
41.255 0.00587575
41.45 0.00202314
41.645 -0.00500295
41.84 -0.00229983
42.035 -0.0089316
42.23 0.00554672
42.425 -0.00153461
42.62 -0.00501761
42.815 -0.00173638
43.01 -0.00319882
43.205 0.00192148
43.4 0.00627435
43.595 -0.0156504
43.79 0.0200194
43.985 0.0216783
44.18 0.00551899
44.375 -0.00136332
44.57 0.0169119
44.765 0.0784669
44.96 0.880557
45.155 0.744188
45.35 0.0501254
45.545 0.023326
45.74 0.058817
45.935 0.121813
46.13 0.28352
46.325 0.0728404
46.52 0.0240844
46.715 0.0249801
46.91 0.0159294
47.105 0.0225655
47.3 0.0170908
47.495 0.0123116
47.69 0.00398481
47.885 0.0132553
48.08 -0.00119444
48.275 0.00207744
48.47 0.0249666
48.665 0.0382491
48.86 0.00341365
49.055 -0.00404625
49.25 -0.00304596
49.445 0.0116726
49.64 0.00140762
49.835 0.00396534
50.03 0.00941709
50.225 0.000474001
50.42 -0.000850258
50.615 0.012047
50.81 -0.000972371
51.005 -0.00600492
51.2 -0.00670233
51.395 -0.00860743
51.59 -0.00178066
51.785 -0.0105069
51.98 0.000620014
52.175 0.00102281
52.37 0.0188774
52.565 0.029122
52.76 0.0967371
52.955 0.205688
53.15 0.0403275
53.345 0.00571626
53.54 -0.00501384
53.735 0.00876206
53.93 0.0103451
54.125 0.00775747
54.32 0.0120656
54.515 0.00821703
54.71 0.0182287
54.905 0.0197353
55.1 0.0474024
55.295 0.0860229
55.49 0.107278
55.685 0.135716
55.88 0.106308
56.075 0.123937
56.27 0.031556
56.465 -0.00417588
56.66 -0.00232438
56.855 -0.00835843
57.05 -0.00678134
57.245 0.00176508
57.44 0.00622281
57.635 0.0093735
57.83 0.000482892
58.025 0.0044433
58.22 0.000577279
58.415 0.0207255
58.61 0.0314878
58.805 0.0257821
59 0.020522
59.195 0.00795727
59.39 0.00567941
59.585 0.00638727
59.78 -0.00150462
59.975 0.00723256
60.17 0.00924241
60.365 -0.00407325
60.56 0.00440805
60.755 0.0119459
60.95 0.0255277
61.145 0.0719755
61.34 0.241069
61.535 0.327268
61.73 0.115018
61.925 0.0321853
62.12 0.0227732
62.315 0.0380213
62.51 0.0757718
62.705 0.0449192
62.9 0.0222916
63.095 0.017839
63.29 -0.00488251
63.485 -0.00128991
63.68 0.00421913
63.875 -0.00163719
64.07 -0.00351675
64.265 0.00332777
64.46 0.00383892
64.655 -0.000589478
64.85 0.00518996
65.045 0.0135288
65.24 0.00912012
65.435 0.00534676
65.63 0.00709721
65.825 0.0101051
66.02 0.00932553
66.215 0.04397
66.41 0.187274
66.605 0.13526
66.8 0.0284452
66.995 0.0073331
67.19 0.00876891
67.385 0.0161322
67.58 0.000459376
67.775 0.00670976
67.97 0.0415792
68.165 0.0356254
68.36 0.0131249
68.555 -0.0106492
68.75 0.00542477
68.945 0.0143575
69.14 0.00360048
69.335 0.00916198
69.53 -0.00231002
69.725 -0.0011668
69.92 0.00244753
70.115 0.0107728
70.31 -0.0108673
70.505 0.00659149
70.7 0.00715328
70.895 0.0075544
71.07 -0.0119923

File: 2018-07-19T17_25_57.788230+00_00_LBL.xy
'Id: "" Comment: "Integrate frame Perovskite0_03_001.gfrmwith cursor Wedge Cursor #1" Operator: "UC Berkeley" Anode: "Co" Scantype: "TwoTheta" TimePerStep: "900"
14.21 -0.0166424
14.41 0.0276846
14.61 0.0441495
14.81 0.0349026
15.01 0.0536108
15.21 0.00486765
15.41 0.0225693
15.61 0.0212036
15.81 0.0322318
16.01 0.0319887
16.21 0.027175
16.41 0.0304532
16.61 0.0243901
16.81 0.0242094
17.01 0.0256554
17.21 0.0106703
17.41 0.0104318
17.61 0.0278833
17.81 0.0184433
18.01 0.00463976
18.21 0.06551
18.41 0.0357719
18.61 0.0252805
18.81 0.0203197
19.01 0.00797408
19.21 0.0247944
19.41 0.0136833
19.61 -0.00532709
19.81 0.0213683
20.01 0.0305948
20.21 0.0132861
20.41 0.0290762
20.61 0.0222632
20.81 0.0233013
21.01 0.00273511
21.21 -0.00218811
21.41 0.0152762
21.61 -0.00373429
21.81 0.0123153
22.01 0.0141427
22.21 0.0154553
22.41 0.0274984
22.61 0.0298896
22.81 0.0303878
23.01 0.022405
23.21 0.0426591
23.41 -0.00317367
23.61 0.020693
23.81 0.031873
24.01 0.0189393
24.21 0.0287696
24.41 0.0339152
24.61 0.0103247
24.81 0.0261695
25.01 0.0278358
25.21 0.0201802
25.41 0.024824
25.61 0.0825115
25.81 0.0411125
26.01 0.0852121
26.21 0.165973
26.41 0.192784
26.61 0.0700719
26.81 0.0356854
27.01 0.0237118
27.21 0.0257383
27.41 0.0238261
27.61 0.0185014
27.81 0.00784561
28.01 0.00356533
28.21 0.0179301
28.41 0.0143798
28.61 0.0174567
28.81 0.0926993
29.01 0.113092
29.21 0.191441
29.41 0.423378
29.61 0.146392
29.81 0.0689097
30.01 0.0683781
30.21 0.160209
30.41 0.0400138
30.61 0.0101931
30.81 0.0189775
31.01 0.00908885
31.21 -0.00999346
31.41 0.000759532
31.61 -0.000356714
31.81 0.0113476
32.01 -0.00620149
32.21 -0.00199812
32.41 -0.00376694
32.61 -0.00468093
32.81 0.00715977
33.01 0.00609917
33.21 -0.00630203
33.41 0.00900329
33.61 -0.00336844
33.81 0.0158118
34.01 0.0178024
34.21 0.0433699
34.41 0.159779
34.61 0.358278
34.81 0.0966975
35.01 0.0823068
35.21 0.0994111
35.41 0.0321791
35.61 0.0150009
35.81 0.0198644
36.01 0.00453746
36.21 0.00426936
36.41 0.0143783
36.61 0.0197539
36.81 0.0552022
37.01 0.235244
37.21 0.2716
37.41 0.0930689
37.61 0.0522929
37.81 0.0334102
38.01 0.00649973
38.21 0.00247507
38.41 0.0123315
38.61 0.00277117
38.81 0.00842859
39.01 0.0157717
39.21 0.0176477
39.41 0.0362102
39.61 0.0547045
39.81 0.0863208
40.01 0.116174
40.21 0.0514946
40.41 0.0139654
40.61 0.00941677
40.81 0.00369618
41.01 0.007209
41.21 0.0220818
41.41 0.00886004
41.61 0.0101116
41.81 0.00286313
42.01 -0.00314833
42.21 -0.00338034
42.41 -0.00302622
42.61 -0.00364436
42.81 -0.00388695
43.01 -0.0111309
43.21 -0.00339929
43.41 0.00853061
43.61 0.0138367
43.81 0.0394493
44.01 0.0849703
44.21 0.0558979
44.41 0.0236077
44.61 0.0160908
44.81 0.00649267
45.01 0.020512
45.21 0.0191433
45.41 0.0145081
45.61 0.0226074
45.81 0.0274308
46.01 0.090508
46.21 0.15234
46.41 0.111809
46.61 0.0992578
46.81 0.0719654
47.01 0.0366152
47.21 0.0363021
47.41 0.0471221
47.61 0.106059
47.81 0.0708421
48.01 0.0472816
48.21 0.0775633
48.41 0.0656614
48.61 0.0727457
48.81 0.0660994
49.01 0.0200121
49.21 0.0108199
49.41 -0.00225649
49.61 -0.00220976
49.81 -0.00232894
50.01 -0.00709031
50.21 0.00619384
50.41 0.00547997
50.61 0.00820775
50.81 -0.000187982
51.01 -0.00273535
51.21 0.00316021
51.41 -0.00179304
51.61 0.00661895
51.81 -0.00804941
52.01 -0.00848376
52.21 0.0064593
52.41 0.0165198
52.61 0.0465058
52.81 0.0601332
53.01 0.0362722
53.21 0.0143872
53.41 0.0182775
53.61 0.00367971
53.81 0.00772366
54.01 0.0126396
54.21 0.0156867
54.41 0.0535133
54.61 0.0797678
54.81 0.02549
55.01 0.00674441
55.21 0.0045313
55.41 0.00754617
55.61 0.0287086
55.81 0.0431649
56.01 0.0619122
56.21 0.0710336
56.41 0.0286518
56.61 0.00504878
56.81 0.00683182
57.01 0.00191678
57.21 -0.00420169
57.41 5.51763e-05
57.61 -0.00438258
57.81 0.00313349
58.01 -0.00273006
58.21 -0.00131157
58.41 -0.00107477
58.61 0.00243147
58.81 0.000736198
59.01 0.0143282
59.21 0.00738414
59.41 0.00200475
59.61 0.0165662
59.81 0.0160643
60.01 0.00808782
60.21 0.00748236
60.41 0.00975406
60.61 0.0142354
60.81 0.0106029
61.01 0.0235641
61.21 0.0237896
61.41 0.0302473
61.61 0.0279547
61.81 0.0187637
62.01 0.00135581
62.21 0.00912949
62.41 0.00735135
62.61 0.0145553
62.81 0.0235606
63.01 0.0154233
63.21 0.000824975
63.41 0.00340536
63.61 0.000621229
63.81 -0.00406191
64.01 -0.00247653
64.21 -0.00353017
64.41 6.50476e-05
64.61 0.0039508
64.81 0.0246056
65.01 0.0229115
65.21 0.0145422
65.41 -0.00330787
65.61 0.00616896
65.81 -0.00152106
66.01 0.00981317
66.21 0.000607044
66.41 0.013069
66.61 0.0199595
66.81 0.0141118
67.01 -0.000448716
67.21 0.00129462
67.41 0.00507587
67.61 0.00450359
67.81 -0.00569084
68.01 -0.00447865
68.21 0.00412223
68.41 0.0134697
68.61 0.0155268
68.81 0.0226081
69.01 0.0240121
69.21 0.031399
69.41 0.0345007
69.61 0.0183416
69.81 0.0165024
70.01 0.015762
70.21 0.00866907
70.41 -0.00547717
70.61 0.00739096
70.81 0.00440115
71.01 0.00408826
71.21 0.00746212
71.41 0.00714962
71.61 0.000631083
71.81 0.00341483
72.01 -0.00367785
72.21 0.00114123
72.41 0.0038711
72.61 0.0109363
72.81 0.0203236
73.01 0.0212416
73.21 0.0133134
73.4 -0.00873041

File: 2018-07-24T16_19_50.004700+00_00_LBL.xy
'Id: "" Comment: "Integrate frame perovskite0_02_001.gfrmwith cursor Wedge Cursor #1" Operator: "UC Berkeley" Anode: "Co" Scantype: "TwoTheta" TimePerStep: "300"
15.005 -0.0366788
15.18 -0.030884
15.355 -0.0128442
15.53 -0.0252527
15.705 0.022851
15.88 0.0512845
16.055 0.0604308
16.23 0.0233782
16.405 0.0686633
16.58 0.0487793
16.755 0.0585676
16.93 0.0380642
17.105 -0.00519983
17.28 0.067599
17.455 0.0399337
17.63 0.00954772
17.805 0.0772564
17.98 0.00551472
18.155 -0.0104109
18.33 0.0444177
18.505 0.0381584
18.68 0.0293245
18.855 0.0145186
19.03 0.0312862
19.205 0.0494368
19.38 0.0273675
19.555 0.0627734
19.73 0.0278297
19.905 0.021006
20.08 0.0868985
20.255 0.0835307
20.43 0.0432978
20.605 0.0401341
20.78 0.024807
20.955 0.0801761
21.13 0.0833134
21.305 0.0457278
21.48 0.0887768
21.655 0.106341
21.83 0.0972224
22.005 0.0900959
22.18 0.0911755
22.355 0.0938896
22.53 0.0503112
22.705 0.155898
22.88 0.0792847
23.055 0.123879
23.23 0.104759
23.405 0.134439
23.58 0.136846
23.755 0.132722
23.93 0.187279
24.105 0.142807
24.28 0.189793
24.455 0.132837
24.63 0.17091
24.805 0.193897
24.98 0.216431
25.155 0.239344
25.33 0.287306
25.505 0.356389
25.68 0.568991
25.855 1.16834
26.03 3.67453
26.205 5.10008
26.38 1.82355
26.555 0.577932
26.73 0.258039
26.905 0.19738
27.08 0.145321
27.255 0.122471
27.43 0.054842
27.605 0.0886898
27.78 0.0528076
27.955 0.0592141
28.13 0.0227971
28.305 0.0652549
28.48 0.0313306
28.655 -0.00437689
28.83 0.0438121
29.005 0.051901
29.18 0.0665288
29.355 0.0455905
29.53 0.0410204
29.705 0.000131761
29.88 0.0100428
30.055 0.0182011
30.23 -1.33199e-05
30.405 0.021051
30.58 0.0615854
30.755 0.0532865
30.93 0.0378917
31.105 0.0280482
31.28 0.0316776
31.455 -0.0110953
31.63 0.0275463
31.805 0.0221244
31.98 0.0159917
32.155 -0.00234913
32.33 0.0337804
32.505 -0.00346967
32.68 0.0338553
32.855 -0.00855806
33.03 -0.00484695
33.205 0.00755514
33.38 0.00293238
33.555 0.00989423
33.73 0.00975115
33.905 0.0223561
34.08 -0.0181029
34.255 -0.00565078
34.43 0.0195071
34.605 0.0458351
34.78 0.0811017
34.955 0.0349859
35.13 0.0237199
35.305 0.0184597
35.48 0.0107959
35.655 0.00021978
35.83 0.0181515
36.005 0.000985889
36.18 -0.00854919
36.355 0.00667895
36.53 0.00352602
36.705 -0.00155383
36.88 -0.00179277
37.055 0.0110268
37.23 0.0608841
37.405 0.101439
37.58 0.0324753
37.755 0.00350358
37.93 0.0157261
38.105 0.038684
38.28 0.0799045
38.455 0.0330291
38.63 0.0530106
38.805 0.118328
38.98 0.185643
39.155 0.361809
39.33 0.552371
39.505 0.73234
39.68 0.663583
39.855 0.457128
40.03 0.281034
40.205 0.131039
40.38 0.0583888
40.555 0.0458843
40.73 0.0261883
40.905 0.0298019
41.08 0.0167281
41.255 0.0492673
41.43 0.0376146
41.605 0.00996761
41.78 -0.00165896
41.955 -0.0131181
42.13 -0.000244348
42.305 0.015319
42.48 -0.00889922
42.655 0.0193726
42.83 0.00869091
43.005 0.025486
43.18 0.0184254
43.355 0.0367928
43.53 0.0286052
43.705 0.0153041
43.88 0.0418733
44.055 0.0196174
44.23 0.0533962
44.405 0.0345222
44.58 0.011473
44.755 -0.0112236
44.93 0.00238972
45.105 0.0182125
45.28 0.0209335
45.455 0.0155735
45.63 -0.00733312
45.805 0.0431838
45.98 0.0498588
46.155 0.0781941
46.33 0.0532328
46.505 0.0380825
46.68 0.0219317
46.855 0.0372327
47.03 0.00503172
47.205 0.00323456
47.38 -0.00816154
47.555 -0.0018498
47.73 0.0215855
47.905 0.0281068
48.08 0.00222311
48.255 0.0233658
48.43 0.00853618
48.605 0.119047
48.78 0.524642
48.955 0.145584
49.13 0.00288343
49.305 0.0177213
49.48 0.00673661
49.655 0.012989
49.83 0.0181453
50.005 0.0289769
50.18 0.00774177
50.355 0.00896266
50.53 0.0131145
50.705 -0.00681532
50.88 -0.0174549
51.055 -0.0220568
51.23 -0.00219658
51.405 -0.00378713
51.58 -0.00735812
51.755 -0.00268572
51.93 0.0112252
52.105 -0.00596517
52.28 0.0119998
52.455 0.0207416
52.63 0.067029
52.805 0.142247
52.98 0.131381
53.155 0.00805421
53.33 -0.0105304
53.505 -0.00749123
53.68 0.00299869
53.855 -0.00638549
54.03 -0.00410428
54.205 0.005208
54.38 0.0372774
54.555 0.127145
54.73 0.181811
54.905 0.127337
55.08 0.11263
55.255 0.170042
55.43 0.252753
55.605 0.238963
55.78 0.221237
55.955 0.138975
56.13 0.0659342
56.305 0.0297364
56.48 0.0197766
56.655 -0.00230976
56.83 -0.00616735
57.005 0.0163289
57.18 0.0248054
57.355 0.00759338
57.53 0.0133129
57.705 -0.00765689
57.88 0.00410109
58.055 -0.00110481
58.23 0.00247462
58.405 0.010832
58.58 0.0167372
58.755 -0.00101139
58.93 0.0459364
59.105 0.114738
59.28 0.430606
59.455 0.630586
59.63 0.191353
59.805 0.0297936
59.98 0.0168948
60.155 0.00168139
60.33 0.00609779
60.505 0.0226558
60.68 0.017988
60.855 -0.00310504
61.03 0.00317288
61.205 0.00855296
61.38 0.0218565
61.555 0.024366
61.73 0.00632515
61.905 0.0301386
62.08 0.0581656
62.255 0.0950398
62.43 0.102427
62.605 0.111431
62.78 0.0784779
62.955 0.0372929
63.13 0.0142057
63.305 0.0144545
63.48 0.00294405
63.655 0.00302915
63.83 0.00499183
64.005 0.00179591
64.18 -0.00190649
64.355 -0.00337511
64.53 0.00618419
64.705 0.00977215
64.88 0.00861407
65.055 0.042646
65.23 0.0221859
65.405 0.017292
65.58 0.0281743
65.755 0.00407209
65.93 -0.00246608
66.105 -0.00885588
66.28 0.01217
66.455 0.0155694
66.62 -0.0195912