Folder: rapid/data/xrd/xy (part 9)

File: 2019-05-30T15_13_14.483373+00_00_LBL_G9.xy
'Id: "" Comment: "Integrate frame EtNH3I_iPropyl_06_002.gfrmwith cursor Wedge Cursor #7" Operator: "UC Berkeley" Anode: "Co" Scantype: "TwoTheta" TimePerStep: "300"
14.875 -0.0372741
15.05 -0.0355284
15.225 0.0282801
15.4 0.0399367
15.575 0.0615588
15.75 0.0220354
15.925 0.0265371
16.1 0.0796624
16.275 -0.0165635
16.45 0.0408191
16.625 0.0566219
16.8 0.0052079
16.975 0.0253133
17.15 0.0688178
17.325 0.0243702
17.5 -0.00893557
17.675 0.0153477
17.85 0.0469508
18.025 -0.0103054
18.2 0.0461343
18.375 0.00958335
18.55 0.0559437
18.725 0.0257326
18.9 0.0504238
19.075 -0.00662082
19.25 0.0246583
19.425 0.022992
19.6 0.00560972
19.775 0.0699023
19.95 0.0109163
20.125 0.024543
20.3 0.0432833
20.475 0.050502
20.65 -0.00692439
20.825 0.0602101
21 -0.0053339
21.175 0.0349946
21.35 0.024733
21.525 0.0601766
21.7 0.0232638
21.875 0.0481462
22.05 -0.0164511
22.225 0.00981007
22.4 -0.00393484
22.575 0.0303029
22.75 0.0479891
22.925 0.0567079
23.1 0.0180122
23.275 0.0428675
23.45 0.0254244
23.625 0.0355391
23.8 -0.00990802
23.975 -0.0285601
24.15 0.0119164
24.325 0.0346739
24.5 -0.00575919
24.675 0.0559908
24.85 -0.0209895
25.025 0.0583091
25.2 0.124812
25.375 0.106753
25.55 0.0831355
25.725 0.0291748
25.9 -0.0172055
26.075 0.0124972
26.25 -0.0165073
26.425 0.0521824
26.6 -0.0136136
26.775 0.0365003
26.95 0.00981628
27.125 0.0433972
27.3 0.0301624
27.475 0.0431572
27.65 -0.00928918
27.825 0.0694909
28 0.0586406
28.175 0.0528668
28.35 0.0631539
28.525 -0.00870061
28.7 0.0566899
28.875 0.0613406
29.05 0.0940809
29.225 0.0378741
29.4 0.0404625
29.575 0.03789
29.75 -0.00742765
29.925 0.042246
30.1 0.00475571
30.275 0.0157328
30.45 0.0841463
30.625 0.133048
30.8 0.303717
30.975 0.382581
31.15 0.290979
31.325 0.124096
31.5 0.0675664
31.675 0.00270092
31.85 -0.00970747
32.025 -0.00910441
32.2 0.00558179
32.375 0.0109229
32.55 0.019971
32.725 0.0556338
32.9 -0.00177339
33.075 -0.00154429
33.25 0.00217458
33.425 -0.0171626
33.6 0.0220426
33.775 0.0161441
33.95 0.00527886
34.125 -0.0244261
34.3 -0.00331415
34.475 0.0220358
34.65 0.0291434
34.825 0.0309278
35 0.0365409
35.175 0.034708
35.35 0.0211891
35.525 0.0650756
35.7 0.12097
35.875 0.109255
36.05 0.0747466
36.225 -0.00952249
36.4 -0.00716553
36.575 0.00979135
36.75 0.00491427
36.925 0.0108804
37.1 0.00517223
37.275 0.00105251
37.45 0.0169579
37.625 0.0254869
37.8 0.0226597
37.975 0.00322604
38.15 -0.0124514
38.325 -0.0278895
38.5 0.00464521
38.675 0.0266426
38.85 -0.008889
39.025 0.00484882
39.2 -0.00960257
39.375 -0.00891914
39.55 -0.0295418
39.725 0.0106942
39.9 -0.0143596
40.075 -0.00473466
40.25 0.0181358
40.425 0.0346835
40.6 0.0318253
40.775 -0.0056525
40.95 0.00443816
41.125 -0.00284208
41.3 -0.0118504
41.475 -0.00138996
41.65 0.0114043
41.825 -0.00387309
42 -0.0182667
42.175 0.00404547
42.35 -0.00524003
42.525 0.0134204
42.7 0.0143337
42.875 -0.00564218
43.05 -0.00152638
43.225 0.0497944
43.4 0.146326
43.575 0.272028
43.75 0.177189
43.925 0.0610287
44.1 0.0280867
44.275 0.0343284
44.45 0.026101
44.625 0.0254368
44.8 0.0355811
44.975 0.0205344
45.15 0.0121454
45.325 -0.00636011
45.5 0.00167641
45.675 0.00788035
45.85 0.00261683
46.025 0.0386006
46.2 0.0433785
46.375 0.0353811
46.55 0.0122612
46.725 0.00188816
46.9 0.0175284
47.075 0.0385223
47.25 0.045804
47.425 0.0524632
47.6 0.0658357
47.775 0.056591
47.95 0.0674679
48.125 0.0543268
48.3 0.0380165
48.475 0.0159664
48.65 0.013159
48.825 0.00610787
49 0.0143975
49.175 -0.00210574
49.35 -0.00747051
49.525 0.000663296
49.7 0.0129063
49.875 0.000495092
50.05 -0.0119193
50.225 0.00380666
50.4 -0.0130827
50.575 0.00541053
50.75 0.0221675
50.925 0.0304746
51.1 0.0710728
51.275 0.0466197
51.45 0.033286
51.625 -0.0175493
51.8 -0.0149628
51.975 0.00513414
52.15 -0.0181952
52.325 0.0169835
52.5 -0.00414728
52.675 0.00383853
52.85 0.0137301
53.025 -0.0114423
53.2 0.00213707
53.375 -0.0184148
53.55 -0.000918665
53.725 -0.0125598
53.9 0.00160144
54.075 -0.00779077
54.25 -0.00766141
54.425 0.00014953
54.6 0.0058793
54.775 0.0170977
54.95 0.00952849
55.125 0.0104071
55.3 -0.0186846
55.475 -0.00192567
55.65 0.00298381
55.825 -0.0020726
56 -0.000814923
56.175 -0.0116695
56.35 0.0131997
56.525 7.37712e-05
56.7 -0.00892852
56.875 -0.0122198
57.05 -0.000223088
57.225 0.0219188
57.4 0.0213411
57.575 0.051452
57.75 0.0449272
57.925 0.0198226
58.1 0.00308492
58.275 0.00408632
58.45 -0.0150525
58.625 0.00446041
58.8 0.00317547
58.975 0.00808754
59.15 -0.00277909
59.325 -0.0110606
59.5 0.00228537
59.675 0.0292671
59.85 -0.00429195
60.025 -0.00677313
60.2 -0.017821
60.375 0.00688136
60.55 -0.000562704
60.725 -0.000976469
60.9 0.00587156
61.075 -0.0017782
61.25 0.0161845
61.425 -0.00823062
61.6 0.0138325
61.775 0.00313438
61.95 -0.018762
62.125 -0.00556709
62.3 -0.00691116
62.475 -0.00564765
62.65 -0.00365576
62.825 0.00494772
63 0.0173865
63.175 -0.00258216
63.35 0.0167013
63.525 0.00980212
63.7 0.0246653
63.875 0.00392166
64.05 0.0231818
64.225 0.00745705
64.4 -0.000129102
64.575 0.00239503
64.75 0.0283758
64.925 0.011823
65.1 0.0103548
65.275 -0.0011808
65.45 -0.0110161
65.625 -0.0140316
65.8 0.000633101
65.975 -0.0182668
65.98 -0.0220751

File: 2019-05-30T15_19_31.623252+00_00_LBL_H3.xy
'Id: "" Comment: "Integrate frame neopen_trifluo_01_001.gfrmwith cursor Wedge Cursor #1" Operator: "UC Berkeley" Anode: "Co" Scantype: "TwoTheta" TimePerStep: "700"
13.885 -0.0237601
14.075 0.0171115
14.265 0.0618911
14.455 0.0148796
14.645 0.248591
14.835 0.17274
15.025 0.056793
15.215 0.0214731
15.405 0.0122852
15.595 0.0574092
15.785 0.020288
15.975 0.0277021
16.165 0.046251
16.355 0.0536376
16.545 0.0362292
16.735 0.0110709
16.925 -0.00096409
17.115 0.046494
17.305 0.0163791
17.495 0.023322
17.685 0.0142174
17.875 0.0264374
18.065 0.00591125
18.255 0.0241267
18.445 0.0160367
18.635 0.0149987
18.825 0.00333746
19.015 0.0510147
19.205 0.0372386
19.395 0.0409548
19.585 0.0365625
19.775 0.062039
19.965 -0.00580728
20.155 -0.00423642
20.345 0.035902
20.535 0.00142698
20.725 0.0289655
20.915 0.00820895
21.105 0.0185155
21.295 -0.00179826
21.485 0.0256638
21.675 -0.00327536
21.865 -0.00932516
22.055 0.037911
22.245 0.0360385
22.435 0.0232502
22.625 0.0408477
22.815 0.00346083
23.005 0.0410242
23.195 0.0400412
23.385 0.0309258
23.575 0.0330159
23.765 0.0276803
23.955 0.00588907
24.145 0.0181561
24.335 0.0268565
24.525 0.00642014
24.715 0.00459
24.905 0.0381309
25.095 0.0248611
25.285 0.00666876
25.475 0.00644389
25.665 0.0380665
25.855 0.0151653
26.045 0.0213655
26.235 0.0251019
26.425 0.0333443
26.615 0.053664
26.805 0.0465007
26.995 0.0540072
27.185 0.12941
27.375 0.0918076
27.565 0.0443222
27.755 0.0290094
27.945 0.0241098
28.135 0.0307041
28.325 0.00259921
28.515 0.0259498
28.705 0.0354766
28.895 0.0191924
29.085 0.0775257
29.275 0.0482892
29.465 0.0512379
29.655 0.0755218
29.845 0.0756154
30.035 0.123214
30.225 0.327904
30.415 0.0878604
30.605 0.0559415
30.795 0.0411847
30.985 0.0209035
31.175 0.0200483
31.365 0.0250423
31.555 0.0128502
31.745 0.0134924
31.935 0.00297778
32.125 -0.00245146
32.315 0.00187532
32.505 0.00730187
32.695 0.0212764
32.885 0.0530629
33.075 0.0655707
33.265 0.0480178
33.455 0.0328174
33.645 0.036414
33.835 0.0332735
34.025 0.0555697
34.215 0.0521299
34.405 0.171759
34.595 0.377088
34.785 0.116005
34.975 0.0608916
35.165 0.0434921
35.355 0.0216867
35.545 0.0327198
35.735 0.0250777
35.925 0.0356955
36.115 0.0749019
36.305 0.0847232
36.495 0.0485323
36.685 0.0265588
36.875 0.018126
37.065 -0.00617819
37.255 0.0125586
37.445 -0.0136438
37.635 -0.00959274
37.825 -0.00794685
38.015 -0.00606296
38.205 -0.0140811
38.395 -0.0148369
38.585 -0.00608
38.775 0.00878354
38.965 -0.0117689
39.155 -0.00261534
39.345 0.017608
39.535 0.00292224
39.725 0.0250831
39.915 0.0746227
40.105 0.0798645
40.295 0.0095813
40.485 0.0235387
40.675 -0.011926
40.865 0.0114049
41.055 0.0208892
41.245 -0.0165003
41.435 0.00757133
41.625 0.0148157
41.815 0.00647166
42.005 0.00305313
42.195 -0.0160838
42.385 0.0044571
42.575 0.00323436
42.765 0.00192303
42.955 0.01424
43.145 0.0100559
43.335 0.0150235
43.525 -0.0062878
43.715 0.007079
43.905 0.00567199
44.095 0.0105164
44.285 0.0230529
44.475 0.0145759
44.665 0.0116089
44.855 0.0614621
45.045 0.249019
45.235 0.235809
45.425 0.0422811
45.615 0.0324931
45.805 0.057023
45.995 0.216297
46.185 0.973573
46.375 0.750137
46.565 0.0943612
46.755 0.0401464
46.945 0.0180323
47.135 0.010455
47.325 0.0127916
47.515 -0.00431401
47.705 0.00850806
47.895 0.00966551
48.085 0.0131792
48.275 0.0198643
48.465 0.0218502
48.655 0.145877
48.845 0.214004
49.035 0.0485799
49.225 0.0029485
49.415 0.0116358
49.605 -0.00840953
49.795 -0.00147671
49.985 -0.0131138
50.175 -0.0103425
50.365 -0.0051293
50.555 -0.000954268
50.745 0.0121508
50.935 0.00471305
51.125 -0.00807028
51.315 -0.00195762
51.505 0.00172088
51.695 -0.0060623
51.885 -0.000341407
52.075 0.00267492
52.265 -0.00017639
52.455 -0.00472767
52.645 0.0125273
52.835 0.0479647
53.025 0.0778593
53.215 0.0282062
53.405 0.0149067
53.595 -0.00715222
53.785 -0.00597496
53.975 -0.00147858
54.165 0.0149612
54.355 0.0263335
54.545 0.0254409
54.735 0.00419722
54.925 0.00771455
55.115 0.000252879
55.305 0.00732787
55.495 0.0115371
55.685 0.0141188
55.875 0.0137518
56.065 0.0439196
56.255 0.0449259
56.445 0.0321851
56.635 -0.00419612
56.825 0.0115858
57.015 -0.00390177
57.205 0.0110006
57.395 -0.00303845
57.585 -0.00808913
57.775 0.00214713
57.965 0.00937813
58.155 0.000490721
58.345 0.0123076
58.535 0.0196483
58.725 0.0194518
58.915 0.0636107
59.105 0.0543456
59.295 0.0472008
59.485 0.025863
59.675 0.0143374
59.865 0.018324
60.055 0.0269261
60.245 0.0285564
60.435 0.0140451
60.625 -0.0134716
60.815 -0.00240175
61.005 -0.00336443
61.195 0.0286333
61.385 0.119007
61.575 0.217843
61.765 0.211083
61.955 0.0146017
62.145 -0.00244828
62.335 0.00403864
62.525 0.00591694
62.715 0.027367
62.905 0.0260712
63.095 0.0206718
63.285 0.00316692
63.475 0.00934379
63.665 0.00696183
63.855 0.0034954
64.045 0.00809887
64.235 0.0047742
64.425 0.00966546
64.615 0.00142166
64.805 -0.00559269
64.995 -0.00822445
65.185 0.00471726
65.375 -0.00453322
65.565 0.00179952
65.755 0.00919264
65.945 0.0204117
66.135 0.0215822
66.325 0.0620856
66.515 0.189422
66.705 0.193369
66.895 0.110665
67.085 0.0267758
67.275 0.0187202
67.465 0.0347719
67.655 0.0288529
67.845 0.00224993
68.035 0.00382362
68.225 0.00640369
68.415 -0.0133616
68.605 -0.00405338
68.795 0.00400957
68.985 -0.00220595
69.175 0.00362344
69.365 0.00389362
69.555 0.00100384
69.745 -0.00762564
69.935 -0.0048613
69.96 -0.0132409

File: 2019-06-10T21_14_00.866379+00_00_LBL_B1.xy
'Id: "" Comment: "Integrate frame 06132019_dimethyl_ipropyl_01_002.gfrmwith cursor Wedge Cursor #1" Operator: "UC Berkeley" Anode: "Co" Scantype: "TwoTheta" TimePerStep: "480"
15.36 -0.028612
15.555 -0.0276822
15.75 0.0200474
15.945 0.0432358
16.14 0.0175804
16.335 0.0535216
16.53 0.0836665
16.725 0.0365039
16.92 -0.00683614
17.115 0.0415198
17.31 -0.011399
17.505 -0.00387835
17.7 0.0768523
17.895 0.00436014
18.09 0.0542547
18.285 0.0585139
18.48 0.146739
18.675 0.0379099
18.87 0.0438543
19.065 0.0206719
19.26 0.0188226
19.455 0.0383455
19.65 0.0135741
19.845 0.00240863
20.04 0.0352602
20.235 0.0590154
20.43 0.0197555
20.625 0.0285131
20.82 -0.0289312
21.015 0.0639721
21.21 -0.0269786
21.405 0.0827295
21.6 0.0494408
21.795 0.0647313
21.99 0.113454
22.185 0.0265834
22.38 0.0739636
22.575 0.0821414
22.77 0.0267934
22.965 0.0656534
23.16 0.0663432
23.355 0.259747
23.55 0.865349
23.745 0.117925
23.94 -0.0237141
24.135 0.00654241
24.33 -0.0243115
24.525 0.0517152
24.72 0.0341414
24.915 0.033303
25.11 0.00916871
25.305 0.0268649
25.5 0.00489412
25.695 0.0321969
25.89 0.0143212
26.085 0.055717
26.28 0.00775157
26.475 0.0352727
26.67 0.030655
26.865 0.0338232
27.06 0.0476165
27.255 0.0219696
27.45 0.0365673
27.645 0.0543364
27.84 0.0534571
28.035 0.036368
28.23 0.0148167
28.425 -0.00954297
28.62 0.149904
28.815 0.135562
29.01 0.0119729
29.205 0.00158224
29.4 0.00599498
29.595 0.0535115
29.79 0.170042
29.985 1.85422
30.18 1.83796
30.375 0.127706
30.57 0.054731
30.765 0.00979164
30.96 0.00238023
31.155 0.0247296
31.35 -0.00480937
31.545 0.0186953
31.74 0.0316419
31.935 -0.0108091
32.13 -0.00313909
32.325 -0.00415117
32.52 0.0483379
32.715 0.0195973
32.91 0.00886622
33.105 -0.0101455
33.3 -0.0104258
33.495 0.0251224
33.69 0.0101462
33.885 -0.0226728
34.08 0.0236454
34.275 0.0139472
34.47 0.0518471
34.665 0.490137
34.86 0.631085
35.055 0.0713886
35.25 -0.00114564
35.445 -0.0087338
35.64 -0.014765
35.835 0.0402777
36.03 0.249702
36.225 2.24096
36.42 1.54919
36.615 0.122054
36.81 -0.00606307
37.005 0.005217
37.2 0.116879
37.395 0.603788
37.59 0.458739
37.785 0.038817
37.98 0.00196761
38.175 0.0231418
38.37 0.0970264
38.565 0.33686
38.76 0.0758693
38.955 0.0206394
39.15 0.000812979
39.345 0.0192726
39.54 0.0209977
39.735 0.0148584
39.93 0.00167274
40.125 0.0126941
40.32 0.0123812
40.515 0.00310304
40.71 0.051806
40.905 0.00182985
41.1 0.00887228
41.295 0.256794
41.49 0.238522
41.685 0.00831072
41.88 -0.0144744
42.075 0.0181162
42.27 0.00580746
42.465 0.0320649
42.66 0.00784271
42.855 -0.00824824
43.05 -0.00641819
43.245 0.00554123
43.44 0.0237548
43.635 0.0205507
43.83 -0.00205034
44.025 -0.00487591
44.22 0.0322906
44.415 0.0617763
44.61 0.159991
44.805 0.228464
45 0.0312476
45.195 0.0108651
45.39 0.0191012
45.585 0.0147363
45.78 -0.000135223
45.975 0.00360859
46.17 -0.00676335
46.365 -0.00235079
46.56 -0.0139787
46.755 -0.0159982
46.95 -0.00149645
47.145 0.0104131
47.34 0.0441966
47.535 0.19412
47.73 0.251394
47.925 1.20409
48.12 2.30163
48.315 1.29549
48.51 0.170996
48.705 0.0366175
48.9 0.173272
49.095 0.306177
49.29 0.124662
49.485 -0.0187589
49.68 0.00219059
49.875 0.0506775
50.07 0.51045
50.265 0.935775
50.46 0.429559
50.655 0.035286
50.85 0.00673352
51.045 -0.0224382
51.24 -0.00872556
51.435 0.00708645
51.63 0.0404466
51.825 0.16538
52.02 0.250803
52.215 0.0862243
52.41 0.00490168
52.605 -0.00207656
52.8 0.00954737
52.995 -0.00406142
53.19 0.00512919
53.385 9.64223e-06
53.58 0.0755045
53.775 0.129735
53.97 0.0501196
54.165 0.000550629
54.36 -0.0101957
54.555 0.00322741
54.75 -0.00746206
54.945 0.015067
55.14 0.0345513
55.335 0.0141311
55.53 0.0179675
55.725 0.0195279
55.92 0.00417581
56.115 0.000705446
56.31 0.0284124
56.505 -0.0128641
56.7 0.0231454
56.895 0.050773
57.09 0.0803182
57.285 0.0550831
57.48 0.0594663
57.675 0.373851
57.87 0.528382
58.065 0.282918
58.26 0.0517041
58.455 -0.00130579
58.65 0.00718604
58.845 0.0232427
59.04 -0.000986445
59.235 0.0175061
59.43 -0.0131299
59.625 -0.00694386
59.82 0.00133487
60.015 0.00202637
60.21 0.0139392
60.405 0.0288387
60.6 -0.0118049
60.795 0.00450628
60.99 0.0229173
61.185 -0.000967717
61.38 0.00647348
61.575 0.150247
61.77 0.313152
61.965 0.200039
62.16 0.0740317
62.355 0.169744
62.55 0.24584
62.745 0.27714
62.94 0.0998962
63.135 -0.00265528
63.33 0.0271007
63.525 0.0123988
63.72 -0.00102192
63.915 -0.000292371
64.11 0.0128967
64.305 0.0388852
64.5 0.00864894
64.695 0.0324456
64.89 0.0866527
65.085 0.0936471
65.28 0.0336859
65.475 0.0469181
65.67 0.0133899
65.865 0.0016065
66.06 -0.014467
66.255 0.0230073
66.45 0.00660936
66.645 -0.0180821
66.84 0.0135995
67.035 0.0149477
67.23 0.00694739
67.425 0.0132482
67.62 0.0418759
67.815 0.0772929
68.01 0.0659098
68.205 0.0284118
68.4 -0.00147128
68.595 0.0192659
68.79 -0.00690262
68.985 -9.96126e-05
69.18 -0.00946048
69.375 0.010608
69.57 0.0400534
69.765 0.0163152
69.96 0.0166736
70.155 0.0159655
70.35 0.0154584
70.545 0.00746951
70.74 0.030414
70.935 0.14645
71.13 0.264876
71.325 0.308523
71.52 0.166548
71.715 0.054893
71.91 0.02425
72.105 0.0063911
72.3 0.0110227
72.495 -0.00999503
72.69 0.018793
72.885 -0.00519646
72.945 -0.0190484

File: 2019-06-10T21_14_00.866379+00_00_LBL_B6.xy
'Id: "" Comment: "Integrate frame 06132019_dimethyl_ipropyl_02_002.gfrmwith cursor Wedge Cursor #2" Operator: "UC Berkeley" Anode: "Co" Scantype: "TwoTheta" TimePerStep: "480"
17.29 -0.0299317
17.48 0.0583329
17.67 0.0686209
17.86 0.0470785
18.05 0.069543
18.24 0.0583917
18.43 0.060842
18.62 0.0296537
18.81 0.0299932
19 0.0262644
19.19 0.020088
19.38 0.000188017
19.57 0.0554069
19.76 0.0622811
19.95 0.0351848
20.14 0.0342364
20.33 0.0604119
20.52 0.0662718
20.71 0.104994
20.9 0.0710377
21.09 0.0795677
21.28 0.0614328
21.47 0.0249165
21.66 0.055271
21.85 0.0130574
22.04 0.0555714
22.23 0.0237006
22.42 0.03462
22.61 0.0380236
22.8 0.0233718
22.99 0.0716045
23.18 0.0234107
23.37 0.1777
23.56 0.672205
23.75 0.107197
23.94 0.0321263
24.13 0.0388014
24.32 0.0388352
24.51 0.0339725
24.7 0.050878
24.89 0.0045342
25.08 0.0225183
25.27 0.0916987
25.46 0.0296498
25.65 0.026799
25.84 0.0151726
26.03 0.0262671
26.22 0.0550245
26.41 0.0317912
26.6 0.0382284
26.79 0.0817313
26.98 0.0379478
27.17 0.0272227
27.36 0.0209355
27.55 0.0513013
27.74 0.0789683
27.93 0.0335942
28.12 0.0199377
28.31 0.0224411
28.5 0.0456485
28.69 0.13144
28.88 0.0788917
29.07 0.0554629
29.26 0.0279901
29.45 0.0259557
29.64 0.0456963
29.83 0.159962
30.02 1.42676
30.21 1.5064
30.4 0.0981612
30.59 0.0667107
30.78 0.0625018
30.97 0.0336514
31.16 0.0146479
31.35 0.0161569
31.54 0.0129654
31.73 -0.0260401
31.92 0.0162449
32.11 -0.00143864
32.3 0.0115376
32.49 0.0565941
32.68 0.015381
32.87 0.0244869
33.06 0.0419415
33.25 0.0193743
33.44 -0.0072392
33.63 0.0314282
33.82 0.019717
34.01 0.0229555
34.2 0.0482664
34.39 0.0437178
34.58 0.100912
34.77 0.769551
34.96 0.180326
35.15 0.0592192
35.34 -0.00948435
35.53 0.0308868
35.72 0.0205905
35.91 0.0785434
36.1 0.456853
36.29 3.4159
36.48 1.64504
36.67 0.164721
36.86 0.0554828
37.05 0.0431138
37.24 0.0994994
37.43 0.69442
37.62 0.392574
37.81 0.0488439
38 -0.0157525
38.19 0.0195905
38.38 0.0568367
38.57 0.267597
38.76 0.0676273
38.95 0.00708941
39.14 0.0100306
39.33 -0.000632289
39.52 0.00651754
39.71 -0.0150072
39.9 0.0091906
40.09 0.0479999
40.28 -0.013857
40.47 0.038689
40.66 0.0182667
40.85 0.0272366
41.04 0.0241188
41.23 0.143214
41.42 0.541689
41.61 0.216345
41.8 0.0335832
41.99 0.02828
42.18 -0.00484956
42.37 0.0308068
42.56 -0.00879402
42.75 -0.0144416
42.94 0.0055701
43.13 0.0382591
43.32 0.0166511
43.51 0.0177804
43.7 0.0436893
43.89 0.0140415
44.08 0.0349437
44.27 0.0102826
44.46 0.0278756
44.65 0.135547
44.84 0.163337
45.03 0.0488695
45.22 0.0133392
45.41 0.00819513
45.6 0.0200965
45.79 0.0335285
45.98 -0.00512003
46.17 0.00283809
46.36 0.0071115
46.55 0.0138486
46.74 0.0269922
46.93 0.0484397
47.12 -0.0170374
47.31 0.0150816
47.5 0.126266
47.69 0.240715
47.88 0.334245
48.07 1.5545
48.26 3.03869
48.45 0.974125
48.64 0.151535
48.83 0.0682586
49.02 0.156159
49.21 0.182574
49.4 0.0625601
49.59 0.0224334
49.78 0.0371568
49.97 0.158393
50.16 0.827696
50.35 1.37037
50.54 0.561359
50.73 0.0633496
50.92 0.00158873
51.11 0.0185432
51.3 0.00642304
51.49 0.00661365
51.68 0.00434423
51.87 0.177599
52.06 0.235039
52.25 0.0852056
52.44 0.026934
52.63 0.0057632
52.82 -0.001203
53.01 0.00251853
53.2 0.0101007
53.39 0.0224467
53.58 0.0198624
53.77 0.0741245
53.96 0.0679822
54.15 0.0119982
54.34 0.00303095
54.53 0.00925044
54.72 -0.0102332
54.91 0.0122035
55.1 0.00594644
55.29 0.0171814
55.48 -0.0152923
55.67 -0.011875
55.86 0.00730991
56.05 0.0177621
56.24 0.0203232
56.43 0.00909004
56.62 0.00484903
56.81 0.0244579
57 0.0662464
57.19 0.0725033
57.38 0.0805638
57.57 0.122853
57.76 0.457747
57.95 0.605558
58.14 0.331137
58.33 0.069325
58.52 0.0136584
58.71 0.0171715
58.9 -0.00976892
59.09 0.0288592
59.28 -0.0015429
59.47 -0.0116502
59.66 -0.00958167
59.85 0.00636499
60.04 0.00277645
60.23 0.0200329
60.42 0.00625741
60.61 0.0354
60.8 0.00346212
60.99 0.0305971
61.18 0.0220266
61.37 0.0233397
61.56 0.10969
61.75 0.289436
61.94 0.289071
62.13 0.163009
62.32 0.0753304
62.51 0.169922
62.7 0.218545
62.89 0.0968103
63.08 0.0479277
63.27 0.0145101
63.46 0.0209787
63.65 0.00910217
63.84 0.00236055
64.03 0.0257644
64.22 0.00612475
64.41 0.0120748
64.6 0.0342491
64.79 0.0779487
64.98 0.0834175
65.17 0.0594743
65.36 0.0645125
65.55 0.0203174
65.74 0.00228416
65.93 0.0234788
66.12 0.0108339
66.31 0.0109812
66.5 0.00684877
66.69 -0.00404636
66.88 0.0141033
67.07 0.014787
67.26 0.0102269
67.45 0.00383543
67.64 0.0470814
67.83 0.0918865
68.02 0.096529
68.21 0.0520715
68.4 0.0329554
68.59 0.0299967
68.78 -0.000196807
68.97 0.00425237
69.16 0.0208511
69.35 0.0131303
69.54 -0.00242533
69.73 -0.000992096
69.92 0.0273734
70.11 0.0459326
70.3 0.01814
70.49 0.0137408
70.68 -0.00961197
70.87 0.0566995
71.06 0.208756
71.25 0.282185
71.44 0.240079
71.63 0.146657
71.82 0.0590845
72.01 0.0142585
72.2 0.0425461
72.39 0.021596
72.58 -0.00237225
72.77 -0.0105592
72.96 -0.0128407
73.15 0.0104957
73.34 0.0417947
73.53 0.0218368
73.72 -0.014938
73.755 -0.018662

File: 2019-06-10T21_14_00.866379+00_00_LBL_F7.xy
'Id: "" Comment: "Integrate frame 06132019_dimethyl_ipropyl_03_002.gfrmwith cursor Wedge Cursor #3" Operator: "UC Berkeley" Anode: "Co" Scantype: "TwoTheta" TimePerStep: "480"
16.825 -0.0290251
17.02 0.145178
17.215 0.0180308
17.41 0.0690683
17.605 0.0213715
17.8 0.0280145
17.995 0.0186736
18.19 -0.0195317
18.385 0.13764
18.58 0.0325905
18.775 0.0848521
18.97 0.0126038
19.165 0.0187535
19.36 0.0309958
19.555 0.0365034
19.75 -0.0272727
19.945 0.0486701
20.14 0.0910443
20.335 0.0197032
20.53 0.0469579
20.725 0.0419148
20.92 0.0548006
21.115 0.0715336
21.31 0.0131298
21.505 0.0405595
21.7 -0.00403064
21.895 0.0491099
22.09 0.0593151
22.285 0.0182363
22.48 0.0654763
22.675 0.000360777
22.87 0.0640866
23.065 0.0137235
23.26 0.0969032
23.455 0.380644
23.65 0.159881
23.845 0.0816143
24.04 0.0767086
24.235 0.0118169
24.43 0.0260558
24.625 0.0206975
24.82 -0.0198089
25.015 0.0640179
25.21 0.195282
25.405 0.0575807
25.6 0.0386164
25.795 0.041355
25.99 0.0430421
26.185 0.0547508
26.38 0.0722859
26.575 0.0644914
26.77 0.0472053
26.965 0.0497549
27.16 0.0829292
27.355 0.0234495
27.55 0.0134206
27.745 0.041688
27.94 0.0837276
28.135 0.0419908
28.33 0.0425626
28.525 0.103269
28.72 0.451661
28.915 0.0835306
29.11 0.00783372
29.305 0.0280394
29.5 0.0083871
29.695 0.133929
29.89 0.890228
30.085 3.92577
30.28 0.447977
30.475 0.110476
30.67 0.0424719
30.865 0.0262819
31.06 0.0352353
31.255 0.0193991
31.45 0.056246
31.645 0.019575
31.84 0.0104118
32.035 0.0314591
32.23 0.0413832
32.425 0.0324407
32.62 0.0277954
32.815 0.032005
33.01 0.0262123
33.205 -0.0242322
33.4 0.0136605
33.595 0.0115427
33.79 0.0303964
33.985 0.0181499
34.18 -0.0138527
34.375 0.0538699
34.57 0.502039
34.765 1.62211
34.96 0.30373
35.155 0.0361625
35.35 -0.021478
35.545 0.0259084
35.74 0.0222863
35.935 0.0817121
36.13 1.14332
36.325 2.17686
36.52 0.237535
36.715 0.0292349
36.91 0.00080349
37.105 0.0978379
37.3 0.833376
37.495 1.485
37.69 0.29188
37.885 0.028373
38.08 -0.0121215
38.275 0.024791
38.47 0.296787
38.665 0.15503
38.86 0.0238429
39.055 0.00587843
39.25 -0.000437167
39.445 0.0110327
39.64 0.0208223
39.835 0.00518362
40.03 0.0174043
40.225 0.0157879
40.42 0.0133202
40.615 0.0557631
40.81 0.073395
41.005 0.0266787
41.2 0.138856
41.395 0.299951
41.59 0.0609368
41.785 0.0399872
41.98 0.0137298
42.175 0.0206067
42.37 -0.000950364
42.565 0.0154416
42.76 0.0131822
42.955 0.00946865
43.15 0.0250414
43.345 0.0193328
43.54 0.0423457
43.735 0.0137388
43.93 0.00403822
44.125 0.00474225
44.32 0.0375804
44.515 0.190822
44.71 0.399711
44.905 0.212768
45.1 0.0397549
45.295 -0.0181723
45.49 -0.00160575
45.685 -0.00937657
45.88 0.0102032
46.075 -0.00960176
46.27 -0.00598257
46.465 -0.0101583
46.66 0.0260309
46.855 0.0200579
47.05 0.015278
47.245 0.0637463
47.44 0.230847
47.635 0.337521
47.83 0.456587
48.025 1.88856
48.22 1.90919
48.415 0.434088
48.61 0.116664
48.805 0.188404
49 0.445088
49.195 0.355462
49.39 0.0826481
49.585 0.0237946
49.78 0.042028
49.975 0.32463
50.17 0.931805
50.365 0.646487
50.56 0.135976
50.755 0.0243978
50.95 0.00145965
51.145 -0.0132282
51.34 -0.0187951
51.535 0.030744
51.73 0.149342
51.925 0.236425
52.12 0.154644
52.315 0.0449729
52.51 0.00628462
52.705 0.00746314
52.9 0.00144513
53.095 0.0112109
53.29 0.0131373
53.485 0.0567286
53.68 0.21856
53.875 0.226996
54.07 0.0452623
54.265 0.00279117
54.46 -0.00565066
54.655 -0.00208187
54.85 0.0050162
55.045 0.00967158
55.24 0.022342
55.435 0.00675191
55.63 -0.00196189
55.825 0.00657727
56.02 0.0326422
56.215 0.00340523
56.41 -0.010502
56.605 0.00900974
56.8 0.0604305
56.995 0.110857
57.19 0.0891991
57.385 0.0783801
57.58 0.316109
57.775 0.437622
57.97 0.367752
58.165 0.0983189
58.36 0.0457271
58.555 0.00936196
58.75 -0.00340026
58.945 0.00554568
59.14 0.0195088
59.335 -0.00507292
59.53 0.0040996
59.725 0.0116349
59.92 -0.00839063
60.115 -0.00757585
60.31 0.0176814
60.505 -0.00564869
60.7 0.0221685
60.895 -0.00340498
61.09 0.0121524
61.285 0.0732275
61.48 0.133794
61.675 0.258325
61.87 0.266895
62.065 0.133034
62.26 0.157405
62.455 0.259448
62.65 0.270126
62.845 0.104726
63.04 0.0470923
63.235 0.0281293
63.43 0.0175635
63.625 0.0136625
63.82 0.0229022
64.015 0.0195388
64.21 0.00529925
64.405 0.0174596
64.6 0.0618461
64.795 0.141992
64.99 0.194002
65.185 0.0922652
65.38 0.0603435
65.575 0.0272005
65.77 0.0393904
65.965 0.0213996
66.16 0.00144767
66.355 0.0134174
66.55 0.0258914
66.745 0.0139958
66.94 -0.0101881
67.135 0.0123267
67.33 -0.00117869
67.525 0.0442231
67.72 0.0716455
67.915 0.0979676
68.11 0.0602077
68.305 0.0319204
68.5 0.0418196
68.695 0.0261177
68.89 0.0181181
69.085 0.013339
69.28 0.0233296
69.475 0.00627324
69.67 0.0333612
69.865 0.0475251
70.06 0.0513248
70.255 0.0460159
70.45 0.00683279
70.645 0.0138232
70.84 0.104141
71.035 0.185091
71.23 0.280457
71.425 0.183687
71.62 0.0632451
71.815 0.00949694
72.01 -0.00184397
72.205 0.0147563
72.4 0.0257113
72.595 0.00782536
72.79 0.0210572
72.985 0.0558656
73.18 0.121855
73.375 0.137323
73.57 0.133531
73.765 0.0788582
73.96 0.0272415
74.155 -0.00871661
74.35 -0.0173523