Folder: rapid/data/xrd/xy (part 14)

File: 2019-07-01T19_39_31.550325+00_00_LBL_A9.xy
'Id: "" Comment: "Integrate frame 20190716_acnh3_nprop_4flph_05_003.gfrmwith cursor Wedge Cursor #3" Operator: "UC Berkeley" Anode: "Co" Scantype: "TwoTheta" TimePerStep: "450"
13.49 -0.0279622
13.695 0.0700632
13.9 0.0993167
14.105 0.0794996
14.31 0.0655496
14.515 0.0816634
14.72 0.398881
14.925 0.123823
15.13 0.0922315
15.335 0.0788013
15.54 0.0044698
15.745 0.0658585
15.95 0.0108664
16.155 0.0805323
16.36 0.0607772
16.565 0.0417005
16.77 0.0754305
16.975 0.0968268
17.18 0.0183004
17.385 0.0788683
17.59 -0.0175119
17.795 0.075343
18 0.0197618
18.205 0.100491
18.41 0.0512675
18.615 0.0721553
18.82 0.117085
19.025 0.0692961
19.23 0.108668
19.435 0.0937704
19.64 0.0805867
19.845 0.034587
20.05 0.0219359
20.255 0.127742
20.46 0.0528359
20.665 0.0203324
20.87 -0.00133955
21.075 0.0796223
21.28 0.0495563
21.485 0.0311029
21.69 -0.00629891
21.895 0.0403377
22.1 0.05998
22.305 -0.00900036
22.51 0.0371893
22.715 0.0415779
22.92 0.060959
23.125 0.0605887
23.33 0.133259
23.535 0.0835692
23.74 0.0844219
23.945 0.0189686
24.15 0.0873054
24.355 0.00262519
24.56 0.0281191
24.765 0.0363281
24.97 0.0266428
25.175 0.000673188
25.38 0.0106866
25.585 -0.0143192
25.79 0.0763918
25.995 0.00010813
26.2 0.115675
26.405 0.0342995
26.61 0.0581511
26.815 0.0389514
27.02 0.0303542
27.225 0.0583642
27.43 0.128355
27.635 0.20551
27.84 0.0680362
28.045 0.0124918
28.25 0.132579
28.455 0.0806218
28.66 0.0400465
28.865 0.0634587
29.07 0.408624
29.275 0.226813
29.48 0.115511
29.685 0.463191
29.89 0.16602
30.095 1.3553
30.3 1.49795
30.505 0.154761
30.71 0.0709748
30.915 0.0631955
31.12 0.0575271
31.325 0.0335238
31.53 0.00664944
31.735 0.0209076
31.94 0.162241
32.145 0.0613688
32.35 0.0461175
32.555 0.0550016
32.76 0.111073
32.965 0.041186
33.17 0.0196276
33.375 0.00103108
33.58 0.00739189
33.785 0.0379941
33.99 0.176443
34.195 0.0813198
34.4 -0.000768296
34.605 -0.00116678
34.81 0.1163
35.015 0.130702
35.22 0.0356977
35.425 0.0449495
35.63 0.0118654
35.835 -0.014752
36.04 0.0353017
36.245 0.0185431
36.45 0.00792934
36.655 -0.0138904
36.86 0.092359
37.065 0.26165
37.27 0.0801211
37.475 0.00534648
37.68 0.00983326
37.885 0.0256968
38.09 0.0288088
38.295 0.00356684
38.5 0.0220414
38.705 0.0163667
38.91 0.0287371
39.115 0.0998582
39.32 0.0282763
39.525 0.0834336
39.73 0.229222
39.935 1.71652
40.14 1.92534
40.345 0.211069
40.55 0.0629703
40.755 0.0490295
40.96 -0.00552671
41.165 0.0416152
41.37 0.0333914
41.575 0.0748973
41.78 0.0551939
41.985 0.0206853
42.19 0.0440003
42.395 0.0197919
42.6 0.0309397
42.805 0.0333793
43.01 0.0282824
43.215 0.0618152
43.42 0.0101826
43.625 0.0446246
43.83 0.00950288
44.035 0.0122219
44.24 0.000717001
44.445 0.0651563
44.65 -0.00944903
44.855 0.056375
45.06 0.670173
45.265 2.25111
45.47 0.476511
45.675 0.0196458
45.88 0.0539785
46.085 0.404186
46.29 0.817616
46.495 0.197468
46.7 0.102062
46.905 0.0884537
47.11 0.0306119
47.315 0.0196165
47.52 -0.0102869
47.725 0.0166965
47.93 0.0616065
48.135 0.0440875
48.34 0.0133609
48.545 0.0818966
48.75 0.216707
48.955 0.174346
49.16 0.0144758
49.365 -0.00529521
49.57 0.00714937
49.775 0.034262
49.98 0.0533385
50.185 0.0634702
50.39 0.0589133
50.595 0.0217952
50.8 0.0170111
51.005 0.0246147
51.21 -0.0114629
51.415 -0.0110361
51.62 0.0148227
51.825 -0.0118927
52.03 0.0102044
52.235 0.0253414
52.44 0.0383344
52.645 0.107944
52.85 0.50577
53.055 1.12176
53.26 0.483388
53.465 0.045674
53.67 0.0236237
53.875 -0.0142276
54.08 -0.0143931
54.285 0.0137037
54.49 0.000682494
54.695 -0.0173215
54.9 -0.0113289
55.105 0.0163875
55.31 -0.0181495
55.515 -0.00807346
55.72 0.0415031
55.925 0.0829315
56.13 0.243846
56.335 0.213056
56.54 0.0588687
56.745 -0.00202231
56.95 0.0211717
57.155 0.0103611
57.36 0.00379812
57.565 0.00581131
57.77 0.00910658
57.975 0.00632268
58.18 0.0251564
58.385 0.0622806
58.59 0.03266
58.795 0.0580864
59 0.0231145
59.205 0.00207505
59.41 0.0627462
59.615 0.0342102
59.82 0.0712903
60.025 0.0423318
60.23 0.045945
60.435 0.0185021
60.64 0.0157854
60.845 0.00568094
61.05 0.0403609
61.255 0.114269
61.46 0.441067
61.665 1.0405
61.87 0.878784
62.075 0.176023
62.28 0.0756343
62.485 0.107061
62.69 0.265425
62.895 0.236614
63.1 0.103509
63.305 0.0244808
63.51 -0.0138681
63.715 0.0226951
63.92 0.0197809
64.125 0.0303213
64.33 0.00658304
64.535 -0.0124755
64.74 0.00810862
64.945 0.00278629
65.15 0.00718387
65.355 0.00769458
65.56 0.00340699
65.765 0.00375224
65.97 -0.000375407
66.175 0.0140874
66.38 0.114271
66.585 0.24314
66.79 0.297649
66.995 0.140507
67.2 0.0132777
67.405 -0.00811495
67.61 0.00420495
67.815 -0.0072338
68.02 0.0825213
68.225 0.127958
68.43 0.117553
68.635 0.0210991
68.84 0.0173092
69.045 0.0565801
69.25 0.00598445
69.455 0.0118645
69.66 0.0138543
69.865 0.0291554
70.07 0.0205532
70.275 0.0112856
70.48 0.0224645
70.685 0.0227166
70.89 0.0193748
71.095 0.0176678
71.3 0.0272607
71.505 0.00580913
71.71 0.0104792
71.915 0.00937832
72.12 0.0317616
72.325 0.00904664
72.53 0.0156465
72.735 0.0648578
72.94 0.115522
73.145 0.101993
73.35 0.0478579
73.555 0.00177831
73.76 0.00909808
73.965 0.0200646
74.17 0.026018
74.375 0.00438727
74.525 -0.0179576

File: 2019-07-01T19_39_31.550325+00_00_LBL_C4.xy
'Id: "" Comment: "Integrate frame 20190716_acnh3_nprop_4flph_03_002.gfrmwith cursor Wedge Cursor #1" Operator: "UC Berkeley" Anode: "Co" Scantype: "TwoTheta" TimePerStep: "450"
20.115 -0.0388468
20.3 -0.00765761
20.485 -0.0193678
20.67 0.0516278
20.855 -0.0107491
21.04 -0.00634514
21.225 0.0725718
21.41 0.0381678
21.595 0.0785047
21.78 0.0502217
21.965 0.0217478
22.15 0.12477
22.335 0.070649
22.52 0.130697
22.705 0.34072
22.89 0.403418
23.075 0.124908
23.26 0.116163
23.445 0.0733035
23.63 0.121939
23.815 0.0462241
24 0.112268
24.185 0.008132
24.37 0.0858856
24.555 -0.00479516
24.74 0.0602486
24.925 0.0133784
25.11 0.138296
25.295 0.104062
25.48 0.119972
25.665 0.0319075
25.85 0.0187024
26.035 0.0740239
26.22 0.0840155
26.405 0.0816492
26.59 -0.0200016
26.775 0.139022
26.96 0.108082
27.145 -0.0145482
27.33 -0.017709
27.515 0.0108782
27.7 0.0736227
27.885 0.0970519
28.07 0.00454562
28.255 0.014167
28.44 0.0786621
28.625 0.0295081
28.81 0.0978926
28.995 0.120062
29.18 0.109934
29.365 0.684157
29.55 0.335506
29.735 0.10401
29.92 0.0398594
30.105 0.274723
30.29 0.1217
30.475 -0.00847241
30.66 0.0430338
30.845 0.00185503
31.03 0.0103673
31.215 0.0244629
31.4 -0.00693784
31.585 0.0294881
31.77 0.0255795
31.955 0.0421865
32.14 0.0845211
32.325 0.00213022
32.51 0.0992948
32.695 0.0545332
32.88 0.0496672
33.065 0.0155007
33.25 0.0500408
33.435 -0.00499377
33.62 0.0700095
33.805 0.0413154
33.99 0.00331187
34.175 0.0342693
34.36 0.0913863
34.545 0.37826
34.73 0.223959
34.915 0.411339
35.1 1.60978
35.285 1.07125
35.47 0.249179
35.655 0.0349885
35.84 0.00784778
36.025 0.00773171
36.21 0.00119742
36.395 -0.0220784
36.58 0.0133412
36.765 0.0396438
36.95 0.110742
37.135 0.330222
37.32 0.156396
37.505 0.0700976
37.69 0.0198878
37.875 -0.00570729
38.06 0.0428519
38.245 -0.00930279
38.43 0.00113544
38.615 -0.0265448
38.8 0.0361546
38.985 0.0238864
39.17 0.00194482
39.355 -0.0090194
39.54 0.00509831
39.725 -3.64396e-05
39.91 0.21564
40.095 0.352844
40.28 0.044418
40.465 0.0579366
40.65 -0.0227887
40.835 -0.0176199
41.02 -0.0149513
41.205 0.0180967
41.39 0.0780372
41.575 0.0404015
41.76 0.0416545
41.945 0.00084957
42.13 0.012427
42.315 0.0171712
42.5 0.0139331
42.685 0.0351412
42.87 -0.0245646
43.055 0.0383429
43.24 0.00940064
43.425 -0.0122409
43.61 0.0202467
43.795 0.0526653
43.98 0.100468
44.165 0.0477468
44.35 0.00911379
44.535 0.0247932
44.72 0.00833619
44.905 0.0499855
45.09 0.0495157
45.275 0.0344773
45.46 0.0302617
45.645 0.0559213
45.83 0.0641371
46.015 0.0671473
46.2 0.158921
46.385 0.51603
46.57 1.47753
46.755 1.09158
46.94 0.322519
47.125 0.055352
47.31 0.0100431
47.495 0.0375526
47.68 0.118236
47.865 0.0226241
48.05 0.04177
48.235 0.14386
48.42 0.227585
48.605 0.467735
48.79 0.376161
48.975 0.109924
49.16 0.0617446
49.345 0.0072018
49.53 0.0384853
49.715 0.00425934
49.9 0.0189513
50.085 0.00144236
50.27 0.00250478
50.455 0.0473101
50.64 0.036186
50.825 0.0121077
51.01 -0.013417
51.195 0.0299393
51.38 -0.00753076
51.565 -0.00695631
51.75 -0.00738726
51.935 0.0157898
52.12 -0.00689465
52.305 0.0168741
52.49 0.0235894
52.675 0.0380871
52.86 0.0243004
53.045 -0.0175903
53.23 0.00804684
53.415 0.014026
53.6 0.011619
53.785 -0.00871492
53.97 0.00970835
54.155 0.0100029
54.34 -0.00724162
54.525 0.0442408
54.71 0.00164416
54.895 -0.000147
55.08 0.0547498
55.265 0.072684
55.45 0.0292335
55.635 0.0634823
55.82 0.0985197
56.005 0.283131
56.19 0.331139
56.375 0.148821
56.56 0.0518405
56.745 0.0123798
56.93 -0.00203501
57.115 -0.00220227
57.3 0.0138591
57.485 0.0109841
57.67 -0.0224671
57.855 0.0398007
58.04 0.0228258
58.225 0.0075322
58.41 -0.023984
58.595 0.0610422
58.78 -0.0240411
58.965 0.0218659
59.15 0.0147251
59.335 0.02265
59.52 0.0582447
59.705 0.136962
59.89 0.174674
60.075 0.0558848
60.26 0.0215519
60.445 0.00933553
60.63 0.0156112
60.815 0.0439307
61 0.0874495
61.185 0.0638098
61.37 0.0308264
61.555 0.0140013
61.74 0.0307417
61.925 0.01561
62.11 0.00419458
62.295 0.00755461
62.48 -0.0118022
62.665 0.0272278
62.85 0.0201654
63.035 0.029958
63.22 0.0350818
63.405 -0.000352538
63.59 0.0414633
63.775 -0.0218104
63.96 0.0510556
64.145 0.0349908
64.33 0.0196899
64.515 0.043896
64.7 0.0575756
64.885 0.0397425
65.07 0.0250068
65.255 0.0466941
65.44 0.0163792
65.625 0.0115097
65.81 -0.00648
65.995 0.0518445
66.18 0.0471005
66.365 0.0181643
66.55 0.0250036
66.735 0.0125018
66.92 -0.0159272
67.105 0.0191876
67.29 -0.0112771
67.475 0.0529946
67.66 0.0155628
67.845 0.0193952
68.03 -0.0206369
68.215 0.0117268
68.4 0.0218084
68.585 0.033594
68.77 0.0273977
68.955 0.0498527
69.14 0.040525
69.325 0.0872036
69.51 0.0664493
69.695 0.051896
69.88 0.0226828
70.065 0.0150235
70.25 0.0341796
70.435 0.0482685
70.62 0.0140012
70.805 0.0557164
70.99 0.0294084
71.175 0.0120334
71.36 0.0285027
71.545 0.0270871
71.73 0.00190727
71.915 0.00343519
72.1 0.0193239
72.285 0.00650796
72.47 0.0349065
72.655 0.0580271
72.84 0.0339609
73.025 0.050384
73.21 0.0260242
73.395 0.0528494
73.58 -0.00225747
73.765 0.0195232
73.95 -0.00105263
74.135 -0.00900928
74.32 0.0154502
74.505 0.0467671
74.69 0.0478811
74.755 -0.0202746

File: 2019-07-01T19_39_31.550325+00_00_LBL_H4.xy
'Id: "" Comment: "Integrate frame 20190716_acnh3_nprop_4flph_04_002.gfrmwith cursor Wedge Cursor #2" Operator: "UC Berkeley" Anode: "Co" Scantype: "TwoTheta" TimePerStep: "450"
20.73 -0.0333218
20.915 0.10311
21.1 0.069204
21.285 0.0502521
21.47 0.0384877
21.655 0.0224473
21.84 0.0717922
22.025 0.125164
22.21 0.048213
22.395 0.115425
22.58 0.0591261
22.765 0.250284
22.95 0.146202
23.135 0.0782306
23.32 0.0263308
23.505 0.0696306
23.69 0.11184
23.875 -0.00880077
24.06 0.0832849
24.245 0.038907
24.43 0.00664128
24.615 0.0386836
24.8 0.0642394
24.985 0.0355494
25.17 -0.0120301
25.355 0.0191424
25.54 0.195377
25.725 0.851568
25.91 0.0136072
26.095 0.01906
26.28 0.0157856
26.465 0.0266906
26.65 0.0478067
26.835 0.029844
27.02 0.0419783
27.205 0.0511247
27.39 0.0649015
27.575 0.0784329
27.76 0.069171
27.945 0.0170945
28.13 0.0504542
28.315 0.0478078
28.5 0.00115869
28.685 0.0292315
28.87 0.254875
29.055 0.309274
29.24 0.424769
29.425 1.62831
29.61 0.906527
29.795 0.268833
29.98 0.0250405
30.165 0.0197815
30.35 -0.00574296
30.535 -0.00449575
30.72 -0.0135218
30.905 0.0178848
31.09 0.0196664
31.275 0.0311048
31.46 0.0172833
31.645 0.108541
31.83 0.0644688
32.015 0.0695343
32.2 0.00793981
32.385 0.0259407
32.57 0.0206374
32.755 0.0406355
32.94 0.0570833
33.125 0.0340942
33.31 0.0540502
33.495 -0.0279995
33.68 0.00557444
33.865 0.0358623
34.05 0.0499587
34.235 0.0780175
34.42 0.223877
34.605 1.05501
34.79 0.654253
34.975 0.27134
35.16 0.572358
35.345 0.425725
35.53 0.153262
35.715 0.0383391
35.9 0.00289392
36.085 -0.00215373
36.27 -0.0107581
36.455 0.00943198
36.64 0.0125481
36.825 0.0509113
37.01 0.388327
37.195 1.14612
37.38 0.556469
37.565 0.253297
37.75 0.14196
37.935 0.0591332
38.12 0.0186734
38.305 0.0337898
38.49 0.00240079
38.675 0.0274605
38.86 0.0232533
39.045 -0.0131762
39.23 0.00794443
39.415 -0.0127225
39.6 -0.0152464
39.785 0.0317464
39.97 0.0408813
40.155 0.0744883
40.34 0.0286033
40.525 0.00915606
40.71 0.000216546
40.895 0.00178211
41.08 0.00944638
41.265 0.0939364
41.45 0.0280696
41.635 -0.0122189
41.82 0.0220227
42.005 0.0284448
42.19 0.0116655
42.375 0.0136498
42.56 0.0097727
42.745 0.0145516
42.93 0.00411759
43.115 -0.016922
43.3 0.0215069
43.485 0.0288955
43.67 0.0322197
43.855 0.0910989
44.04 0.211247
44.225 0.175664
44.41 0.035665
44.595 0.0402924
44.78 0.0302425
44.965 0.0293429
45.15 0.0251142
45.335 0.0334264
45.52 -0.00939052
45.705 -0.00142088
45.89 0.0393049
46.075 0.047269
46.26 0.1381
46.445 0.299835
46.63 0.564422
46.815 0.44816
47 0.220935
47.185 0.032653
47.37 -0.0270232
47.555 0.258603
47.74 0.331935
47.925 0.119444
48.11 0.188555
48.295 0.233305
48.48 0.279839
48.665 0.303115
48.85 0.207083
49.035 0.072999
49.22 0.0314206
49.405 0.0252429
49.59 -0.00506339
49.775 -0.00161541
49.96 0.027539
50.145 0.0186496
50.33 0.0215502
50.515 0.0405184
50.7 0.0336162
50.885 0.0122171
51.07 0.0121563
51.255 -0.016345
51.44 0.00876688
51.625 0.0064588
51.81 0.0157307
51.995 -0.0107193
52.18 -0.0131791
52.365 0.0227014
52.55 0.0488323
52.735 0.171773
52.92 0.124656
53.105 0.043962
53.29 0.00852116
53.475 0.00889385
53.66 0.0179941
53.845 0.0167281
54.03 0.0346086
54.215 0.0076532
54.4 0.179417
54.585 0.364367
54.77 0.260852
54.955 0.10304
55.14 -0.00419876
55.325 -0.00170806
55.51 0.0310179
55.695 0.0467821
55.88 0.0938888
56.065 0.128846
56.25 0.139946
56.435 0.0600381
56.62 0.025673
56.805 0.0133614
56.99 0.0024872
57.175 0.0110824
57.36 0.0028391
57.545 0.0300105
57.73 0.00209404
57.915 0.0196015
58.1 0.0313341
58.285 0.0181763
58.47 0.00698593
58.655 0.0117737
58.84 0.0407057
59.025 0.0319539
59.21 -0.0210498
59.395 0.0761766
59.58 0.0963036
59.765 0.0933774
59.95 0.062106
60.135 0.0373458
60.32 0.00166265
60.505 0.0279137
60.69 -0.00712018
60.875 0.0960553
61.06 0.117213
61.245 0.0747089
61.43 0.0756111
61.615 0.0676377
61.8 0.0249196
61.985 0.0604247
62.17 0.0387214
62.355 0.0344929
62.54 0.0240306
62.725 0.0217909
62.91 0.00189042
63.095 -0.00912332
63.28 -0.00225203
63.465 0.0273535
63.65 0.0218791
63.835 0.0106933
64.02 -0.00850423
64.205 0.0195492
64.39 0.0233415
64.575 -0.00754317
64.76 0.0132386
64.945 0.0738897
65.13 0.114979
65.315 0.0199053
65.5 0.00326926
65.685 0.0102815
65.87 0.0358485
66.055 0.0350304
66.24 0.0373029
66.425 0.0131865
66.61 0.0326181
66.795 0.0117874
66.98 0.0262588
67.165 0.0145589
67.35 0.00769396
67.535 -0.000983647
67.72 0.00313705
67.905 0.0266336
68.09 0.0218683
68.275 0.0147106
68.46 0.019093
68.645 0.0138761
68.83 0.040945
69.015 0.0696196
69.2 0.0725688
69.385 0.0762937
69.57 0.066982
69.755 0.0545776
69.94 0.0374466
70.125 0.0362694
70.31 0.0198804
70.495 -0.00766396
70.68 0.00478092
70.865 0.0117748
71.05 0.00891466
71.235 0.0109522
71.42 -0.00102819
71.605 0.0430574
71.79 0.00334639
71.975 -0.00624196
72.16 0.0212294
72.345 0.00834399
72.53 0.0349641
72.715 0.0305945
72.9 0.0585554
73.085 0.0348112
73.27 0.0545232
73.455 0.0314546
73.64 0.0268044
73.825 0.0298673
74.01 0.0503994
74.195 0.00325541
74.38 0.0259615
74.565 0.019502
74.75 0.00613652
74.82 -0.0205458

File: 2019-07-12T13_34_37.895617+00_00_LBL_A7.xy
'Id: "" Comment: "Integrate frame 20190719_4fluorophenethyl_01_003.gfrmwith cursor Wedge Cursor #1" Operator: "UC Berkeley" Anode: "Co" Scantype: "TwoTheta" TimePerStep: "600"
15.41 -0.0252244
15.61 0.0126751
15.81 0.0186748
16.01 0.0654659
16.21 0.137182
16.41 0.0923082
16.61 0.0982809
16.81 0.237151
17.01 0.0604375
17.21 0.194075
17.41 0.123568
17.61 0.113151
17.81 0.112638
18.01 -0.0247117
18.21 0.153904
18.41 0.126697
18.61 1.71902
18.81 0.900617
19.01 0.154865
19.21 0.0716924
19.41 0.0309916
19.61 0.057741
19.81 0.0679065
20.01 0.0865114
20.21 0.151976
20.41 0.103472
20.61 0.0764074
20.81 0.0600696
21.01 0.0563637
21.21 0.114069
21.41 0.0379894
21.61 0.0620766
21.81 0.100641
22.01 0.120387
22.21 0.0521537
22.41 0.0123232
22.61 0.0653887
22.81 -0.0185472
23.01 0.0194544
23.21 0.0320687
23.41 0.0810751
23.61 0.17198
23.81 0.138104
24.01 0.0892387
24.21 0.105423
24.41 0.0746899
24.61 0.125378
24.81 1.00562
25.01 16.4175
25.21 0.813742
25.41 0.210207
25.61 0.0690466
25.81 0.0689789
26.01 0.0173591
26.21 0.0382684
26.41 0.091664
26.61 0.255786
26.81 0.0736985
27.01 0.165945
27.21 0.247477
27.41 0.0677425
27.61 -0.000139296
27.81 0.0488001
28.01 0.181802
28.21 0.120538
28.41 0.0278247
28.61 0.123779
28.81 0.0838598
29.01 0.105519
29.21 0.071682
29.41 0.0194784
29.61 0.1493
29.81 0.0798947
30.01 0.155558
30.21 0.391862
30.41 0.121558
30.61 0.201222
30.81 0.115269
31.01 0.356568
31.21 1.67616
31.41 21.2816
31.61 1.79717
31.81 0.691632
32.01 0.120247
32.21 0.0294106
32.41 0.0124047
32.61 -0.0139472
32.81 0.0313053
33.01 0.058991
33.21 0.043668
33.41 0.0412275
33.61 -0.00246148
33.81 0.610774
34.01 0.624117
34.21 0.156843
34.41 0.204372
34.61 0.300593
34.81 0.157628
35.01 0.166441
35.21 0.0998391
35.41 0.0109387
35.61 0.27795
35.81 0.0165395
36.01 0.0125725
36.21 0.0132861
36.41 0.0236145
36.61 -0.00101287
36.81 -0.014224
37.01 -0.00594581
37.21 0.0384321
37.41 0.232461
37.61 0.325166
37.81 3.27134
38.01 1.00674
38.21 0.330555
38.41 0.179152
38.61 0.0558802
38.81 0.00502335
39.01 0.0158809
39.21 -0.000228653
39.41 0.0752904
39.61 -0.00747401
39.81 0.105272
40.01 0.244106
40.21 0.0698384
40.41 0.0274055
40.61 0.00347926
40.81 0.0659685
41.01 0.0556494
41.21 0.00843907
41.41 -0.00526234
41.61 0.0183188
41.81 0.0318566
42.01 0.0115975
42.21 0.0232844
42.41 -0.00869528
42.61 0.018347
42.81 0.0457621
43.01 -0.00105152
43.21 0.00925991
43.41 0.0740791
43.61 0.0782495
43.81 0.0763033
44.01 0.0761707
44.21 0.337086
44.41 0.663743
44.61 0.22088
44.81 0.115057
45.01 0.32298
45.21 0.482678
45.41 0.0931791
45.61 -0.0121164
45.81 0.0350693
46.01 0.306456
46.21 1.11077
46.41 0.404118
46.61 0.0679416
46.81 0.0103461
47.01 0.0262124
47.21 0.0335653
47.41 0.0580151
47.61 0.0111947
47.81 0.0424478
48.01 0.0457663
48.21 0.0166864
48.41 -0.0196911
48.61 0.164025
48.81 0.364066
49.01 0.501845
49.21 1.71158
49.41 0.364059
49.61 0.124951
49.81 0.0248971
50.01 0.0212964
50.21 0.0297061
50.41 0.0378134
50.61 0.0132521
50.81 0.000545888
51.01 0.0106608
51.21 0.0678393
51.41 0.0375375
51.61 0.105721
51.81 0.0408343
52.01 0.0128018
52.21 0.0125388
52.41 0.00947949
52.61 0.0109963
52.81 0.0288216
53.01 0.0470272
53.21 0.0125459
53.41 0.0132321
53.61 0.0413491
53.81 0.0778626
54.01 0.0754052
54.21 0.0456357
54.41 0.062601
54.61 0.103506
54.81 0.0427836
55.01 0.116492
55.21 0.113141
55.41 0.0142857
55.61 0.0271889
55.81 0.0716278
56.01 0.056209
56.21 0.0855841
56.41 0.0805145
56.61 0.0252944
56.81 0.0260969
57.01 0.0297422
57.21 0.0173326
57.41 0.01783
57.61 0.0196348
57.81 0.0360757
58.01 0.039781
58.21 0.0144232
58.41 0.0516828
58.61 0.0586956
58.81 0.0423943
59.01 0.0688957
59.21 0.109585
59.41 0.0471021
59.61 0.0325743
59.81 0.0407544
60.01 0.0532059
60.21 0.0188976
60.41 0.0270389
60.61 0.0316414
60.81 0.0245871
61.01 0.00718554
61.21 0.0819152
61.41 0.171216
61.61 0.238419
61.81 0.163806
62.01 -0.0162884
62.21 0.0607869
62.41 0.0832928
62.61 0.0340483
62.81 0.0379254
63.01 0.0897448
63.21 0.0899194
63.41 0.0923575
63.61 0.177504
63.81 0.0693055
64.01 0.0425367
64.21 0.010821
64.41 0.0115778
64.61 0.0230155
64.81 0.0312332
65.01 0.0118307
65.21 -0.00363579
65.41 0.0308326
65.61 0.0527611
65.81 0.00123959
66.01 0.17725
66.21 0.0937571
66.41 0.144332
66.61 0.261859
66.81 0.133955
67.01 0.0564529
67.21 0.0232946
67.41 0.0640626
67.61 0.0876472
67.81 0.13182
68.01 0.0093398
68.21 0.0160655
68.41 -0.000761663
68.61 -0.00968418
68.81 0.0417682
69.01 0.0227582
69.21 -0.00980443
69.41 -0.0011768
69.61 0.0104156
69.81 0.0136951
70.01 0.0204993
70.21 0.0524865
70.41 0.144103
70.61 0.0983599
70.81 0.0765323
71.01 0.0468264
71.21 0.0294677
71.41 0.0155726
71.61 -0.00925658
71.81 0.0246147
72.01 0.032464
72.21 0.018654
72.41 -0.00713452
72.61 -0.00780804
72.81 0.0365526
73.01 0.0610485
73.21 0.0859516
73.41 0.137223
73.61 0.0700403
73.81 0.0266961
74.01 0.0264506
74.21 0.00767346
74.41 0.00404481
74.52 -0.0174171

File: 2019-07-12T13_34_37.895617+00_00_LBL_D7.xy
'Id: "" Comment: "Integrate frame 20190719_4fluorophenethyl_02_002.gfrmwith cursor Wedge Cursor #2" Operator: "UC Berkeley" Anode: "Co" Scantype: "TwoTheta" TimePerStep: "600"
13.955 -0.0256105
14.16 0.0629087
14.365 0.141936
14.57 1.0711
14.775 1.23512
14.98 0.042319
15.185 0.0828987
15.39 -0.0215036
15.595 0.01646
15.8 0.0792023
16.005 0.0541517
16.21 0.0045751
16.415 0.0315929
16.62 0.0898319
16.825 0.160651
17.03 0.104911
17.235 0.108606
17.44 0.0534261
17.645 0.0639686
17.85 0.0675916
18.055 0.0193126
18.26 0.00132658
18.465 0.367117
18.67 2.8041
18.875 0.154292
19.08 -0.00898982
19.285 0.0059361
19.49 0.0421512
19.695 -0.000325954
19.9 0.0282286
20.105 0.105826
20.31 0.0109247
20.515 0.0167921
20.72 0.00717896
20.925 0.0793711
21.13 0.0768331
21.335 0.0464298
21.54 0.0731366
21.745 0.0512858
21.95 0.0503761
22.155 0.0845585
22.36 0.0613816
22.565 0.118919
22.77 0.0645371
22.975 0.051377
23.18 0.0258219
23.385 0.0111789
23.59 0.0724872
23.795 0.0883558
24 0.198017
24.205 -0.00178114
24.41 0.020008
24.615 0.0528385
24.82 1.38201
25.025 9.87467
25.23 0.255202
25.435 0.0761634
25.64 0.0400512
25.845 0.0148613
26.05 0.0117915
26.255 0.00941637
26.46 0.0643507
26.665 0.0685384
26.87 0.0122508
27.075 0.0843182
27.28 0.109048
27.485 0.034048
27.69 0.0868986
27.895 0.0728866
28.1 0.0343234
28.305 0.053095
28.51 0.0534567
28.715 0.0785037
28.92 0.0563553
29.125 0.0358205
29.33 0.0401655
29.535 0.187441
29.74 0.386754
29.945 0.0801114
30.15 0.169991
30.355 0.109894
30.56 0.0637536
30.765 -0.00257561
30.97 0.109191
31.175 0.368047
31.38 11.7588
31.585 1.30491
31.79 0.530196
31.995 0.102832
32.2 -0.00290133
32.405 0.0061528
32.61 -0.0112664
32.815 -0.0167388
33.02 0.020663
33.225 0.0406646
33.43 0.036391
33.635 0.0237116
33.84 0.37957
34.045 0.402854
34.25 0.185294
34.455 0.0587471
34.66 0.195004
34.865 0.0451928
35.07 0.0243804
35.275 0.0125423
35.48 0.0045143
35.685 -0.0210534
35.89 0.00346477
36.095 0.0307128
36.3 0.0154343
36.505 0.00217363
36.71 0.0525417
36.915 0.000486257
37.12 -0.00614605
37.325 0.0486805
37.53 0.249882
37.735 0.35672
37.94 1.57265
38.145 0.178155
38.35 0.11615
38.555 0.04339
38.76 0.00703636
38.965 -0.0181648
39.17 -0.016438
39.375 0.062382
39.58 0.0310269
39.785 -0.003228
39.99 0.124228
40.195 0.0193234
40.4 -0.0160946
40.605 0.00456388
40.81 0.0204371
41.015 0.00269592
41.22 0.0247144
41.425 0.00989968
41.63 0.0267924
41.835 0.0267106
42.04 0.0118773
42.245 0.021442
42.45 -0.000712952
42.655 0.0436637
42.86 0.0147735
43.065 -0.0120652
43.27 0.0100673
43.475 0.0192148
43.68 -0.00255623
43.885 0.0408457
44.09 0.0519725
44.295 0.0447534
44.5 0.00423928
44.705 0.18085
44.91 0.349495
45.115 1.87914
45.32 1.0653
45.525 0.0797703
45.73 0.0024922
45.935 0.0897783
46.14 0.493001
46.345 0.660149
46.55 0.098154
46.755 0.0089277
46.96 0.0267539
47.165 0.0415717
47.37 0.049424
47.575 -0.0190601
47.78 0.00630789
47.985 0.0171445
48.19 0.000215019
48.395 -0.0155506
48.6 0.0890149
48.805 0.219694
49.01 0.215188
49.215 0.299584
49.42 0.052254
49.625 0.026892
49.83 0.0180515
50.035 0.0013425
50.24 0.0555338
50.445 0.0455981
50.65 0.00262589
50.855 -0.00456655
51.06 0.0116987
51.265 0.0529737
51.47 0.0598033
51.675 0.0433926
51.88 0.000564009
52.085 0.0069382
52.29 -0.0123637
52.495 -0.00283271
52.7 0.0069067
52.905 0.0138331
53.11 0.0476287
53.315 -0.000187358
53.52 -0.00991736
53.725 0.0151871
53.93 0.00348717
54.135 0.0763095
54.34 -0.00736831
54.545 0.0239792
54.75 -0.00212897
54.955 0.00969858
55.16 0.0251362
55.365 0.0370823
55.57 0.0250358
55.775 -0.00229317
55.98 -0.00560541
56.185 0.000905818
56.39 0.0588819
56.595 0.00540221
56.8 -0.006922
57.005 0.012858
57.21 0.0255215
57.415 0.0150852
57.62 0.00926446
57.825 -0.0181271
58.03 0.00572563
58.235 0.0116516
58.44 0.00890735
58.645 0.0341965
58.85 0.0247045
59.055 0.0522565
59.26 0.0455067
59.465 0.0323825
59.67 0.00787795
59.875 0.0041055
60.08 -0.0112961
60.285 -0.0127078
60.49 3.15087e-05
60.695 0.00343686
60.9 -0.00774906
61.105 0.0188394
61.31 0.247978
61.515 0.700963
61.72 0.779906
61.925 0.208062
62.13 -0.0132157
62.335 -0.0118056
62.54 0.0040896
62.745 -0.00176925
62.95 0.0260919
63.155 0.0116624
63.36 0.00535222
63.565 -0.008651
63.77 0.0411424
63.975 0.0233909
64.18 0.00700565
64.385 0.021922
64.59 0.0156421
64.795 0.0320765
65 0.0189079
65.205 0.0120034
65.41 0.000741134
65.615 0.0182845
65.82 0.0227896
66.025 0.0321699
66.23 0.0467418
66.435 0.192874
66.64 0.328085
66.845 0.257489
67.05 0.0859509
67.255 -0.00176392
67.46 -0.0128085
67.665 0.0397456
67.87 0.0256649
68.075 0.0228774
68.28 0.0276635
68.485 0.0284443
68.69 -0.000401914
68.895 0.0221555
69.1 0.0354006
69.305 -0.0124348
69.51 0.0163284
69.715 -0.00823183
69.92 0.000566868
70.125 0.0166038
70.33 0.00136094
70.535 0.00709063
70.74 0.0157366
70.945 0.0130187
71.15 0.0463146
71.355 0.000169825
71.56 0.065304
71.765 0.0203734
71.97 0.0338485
72.175 0.00606959
72.38 -0.00304447
72.585 -0.0135368
72.79 0.0354515
72.995 0.0312558
73.2 0.0245785
73.405 0.0428711
73.61 0.0152792
73.815 0.00506072
74.02 0.0290735
74.225 0.0198029
74.43 0.0126402
74.635 -0.00496692
74.84 -0.00595135
74.885 -0.0162435