Folder: rapid/data/xrd/xy (part 12)

File: 2019-06-19T14_53_56.517003+00_00_LBL_C11.xy
'Id: "" Comment: "Integrate frame perovskite_04_001.gfrmwith cursor Wedge Cursor #4" Operator: "UC Berkeley" Anode: "Co" Scantype: "TwoTheta" TimePerStep: "400"
14.065 -0.0319397
14.26 0.0585561
14.455 0.051135
14.65 0.034483
14.845 0.0943924
15.04 0.0551148
15.235 0.0943147
15.43 0.028616
15.625 0.0228005
15.82 0.0174253
16.015 0.0175092
16.21 0.0612703
16.405 0.0619447
16.6 0.0174785
16.795 0.0302831
16.99 0.082919
17.185 0.0234811
17.38 0.032174
17.575 0.0725057
17.77 0.00118386
17.965 0.0420292
18.16 0.0415945
18.355 0.0756092
18.55 0.0896604
18.745 0.13402
18.94 0.0516425
19.135 0.0718607
19.33 0.0348314
19.525 0.0999325
19.72 0.0477731
19.915 0.0555228
20.11 0.0283847
20.305 0.430817
20.5 0.820868
20.695 0.0517443
20.89 0.0644005
21.085 0.0625897
21.28 0.0595592
21.475 -0.00687421
21.67 0.0299851
21.865 0.0608967
22.06 -0.0206086
22.255 0.0228433
22.45 0.0536545
22.645 0.0637538
22.84 0.0510384
23.035 0.0282074
23.23 -0.0142524
23.425 0.068905
23.62 -0.000772173
23.815 0.0368035
24.01 0.0315534
24.205 0.0741203
24.4 0.0338855
24.595 0.0305037
24.79 0.0944469
24.985 0.0463274
25.18 0.211477
25.375 0.282798
25.57 0.0589297
25.765 0.0292412
25.96 0.0284964
26.155 0.0365619
26.35 0.202758
26.545 0.362668
26.74 0.0141355
26.935 -0.0299933
27.13 0.037024
27.325 0.0259334
27.52 0.00723557
27.715 0.0338172
27.91 0.291491
28.105 0.0397801
28.3 0.030573
28.495 0.00363619
28.69 0.0433839
28.885 0.0295728
29.08 0.0206447
29.275 0.0560435
29.47 0.579656
29.665 0.304587
29.86 0.0695149
30.055 0.0473775
30.25 -0.0163871
30.445 0.0377951
30.64 0.0115231
30.835 0.0245276
31.03 -0.000517516
31.225 0.0427951
31.42 0.0248158
31.615 0.0281591
31.81 0.0670116
32.005 0.016116
32.2 0.0191881
32.395 0.00990348
32.59 0.0123403
32.785 -0.0145596
32.98 0.0111206
33.175 0.00598475
33.37 0.0189282
33.565 0.0611605
33.76 0.278393
33.955 0.886927
34.15 0.113317
34.345 0.0202705
34.54 0.0170049
34.735 0.0133592
34.93 0.0183872
35.125 0.015628
35.32 -0.0223916
35.515 -0.017645
35.71 0.00389217
35.905 0.113752
36.1 0.125607
36.295 0.0181754
36.49 0.00271635
36.685 -0.0213339
36.88 0.00210415
37.075 0.0102622
37.27 -0.00422213
37.465 0.0005319
37.66 0.00718446
37.855 0.031495
38.05 0.0871856
38.245 0.69968
38.44 0.608936
38.635 0.0916498
38.83 0.0471237
39.025 -0.0183488
39.22 -0.00483814
39.415 0.0173015
39.61 0.0102771
39.805 -0.00646204
40 0.0822858
40.195 0.0493383
40.39 -0.00621584
40.585 -0.00256289
40.78 0.00473787
40.975 -0.00831921
41.17 -0.00995092
41.365 -0.0070878
41.56 0.0148435
41.755 0.0089862
41.95 0.016969
42.145 0.622558
42.34 0.124015
42.535 0.00879629
42.73 0.0276303
42.925 0.0143941
43.12 0.0111904
43.315 0.0587988
43.51 0.00195051
43.705 0.015531
43.9 0.00597925
44.095 0.186056
44.29 0.469589
44.485 0.0198428
44.68 -0.0166981
44.875 -0.00757653
45.07 0.0113054
45.265 0.0603525
45.46 0.00200757
45.655 -0.0129107
45.85 -0.00121353
46.045 0.00637284
46.24 -0.00220081
46.435 0.0179669
46.63 -0.0114391
46.825 0.00408275
47.02 0.0132992
47.215 0.0412427
47.41 0.0391433
47.605 0.0255995
47.8 -0.00435883
47.995 0.0249563
48.19 -0.0156503
48.385 0.00854458
48.58 0.0827703
48.775 0.0243384
48.97 0.056779
49.165 0.0973632
49.36 0.0269521
49.555 0.036691
49.75 -0.00828299
49.945 -0.0104051
50.14 -0.00421089
50.335 0.009527
50.53 -0.0152628
50.725 0.015807
50.92 -0.0120529
51.115 0.00590524
51.31 0.0170138
51.505 0.00788104
51.7 -0.00875957
51.895 -0.0196172
52.09 -0.0084112
52.285 -0.0183155
52.48 -0.00445836
52.675 -0.000487336
52.87 0.0487227
53.065 0.0311768
53.26 0.0167346
53.455 0.0413788
53.65 -0.00408428
53.845 -0.0056222
54.04 -0.0173236
54.235 0.0297915
54.43 0.00347522
54.625 -0.00410575
54.82 -0.00476983
55.015 0.000726268
55.21 0.00906729
55.405 0.015747
55.6 0.0213717
55.795 0.00891676
55.99 0.00913498
56.185 0.00297861
56.38 0.0294325
56.575 -0.000813406
56.77 -0.00216182
56.965 -0.00597331
57.16 0.00844302
57.355 0.0134819
57.55 -0.0161401
57.745 0.0207904
57.94 0.20407
58.135 0.278918
58.33 0.0690922
58.525 0.0266291
58.72 0.00488091
58.915 0.0116919
59.11 0.000185439
59.305 -0.00393464
59.5 -0.000870692
59.695 0.0250943
59.89 0.0173238
60.085 -0.0152261
60.28 0.0131722
60.475 0.00996815
60.67 0.000130327
60.865 0.0234017
61.06 0.0129884
61.255 0.0313726
61.45 0.28305
61.645 0.274532
61.84 0.0250332
62.035 0.0475488
62.23 0.0181394
62.425 0.00849606
62.62 0.0101312
62.815 0.0580211
63.01 0.0216322
63.205 0.0179329
63.4 0.00954409
63.595 0.011608
63.79 0.0133221
63.985 0.0144259
64.18 -0.0163207
64.375 0.0222586
64.57 0.00182693
64.765 0.0338378
64.96 -0.00502261
65.155 -0.00572642
65.35 0.00667759
65.545 -0.0143122
65.74 0.0235959
65.935 0.059424
66.13 0.00968178
66.325 0.0396785
66.52 0.0823038
66.715 0.219518
66.91 0.14305
67.105 0.0757267
67.3 0.0432667
67.495 0.0261282
67.69 0.0417401
67.885 0.0202757
68.08 -0.0162127
68.275 -0.00423215
68.47 -0.0140387
68.665 -0.0166327
68.86 0.00670839
69.055 0.0114898
69.25 0.0129555
69.445 0.00711968
69.64 -0.00433334
69.835 0.00718624
70.03 0.0370055
70.225 0.0918133
70.42 0.0111248
70.615 -0.00473186
70.81 0.0150724
71.005 -0.016658
71.2 0.0186341
71.395 0.119747
71.59 0.452163
71.785 0.0855219
71.98 0.0039722
72.095 -0.0200481

File: 2019-06-19T14_53_56.517003+00_00_LBL_D1.xy
'Id: "" Comment: "Integrate frame perovskite_01_001.gfrmwith cursor Wedge Cursor #1" Operator: "UC Berkeley" Anode: "Co" Scantype: "TwoTheta" TimePerStep: "400"
13.87 -0.0306558
14.06 0.0209301
14.25 0.0274191
14.44 0.0804866
14.63 0.108505
14.82 0.0106881
15.01 0.0430815
15.2 0.0163887
15.39 0.0556439
15.58 -0.0258417
15.77 0.0468967
15.96 0.0855047
16.15 0.0256675
16.34 0.0238207
16.53 0.0703607
16.72 0.02998
16.91 0.0271926
17.1 -0.014738
17.29 0.0352928
17.48 0.0292667
17.67 0.0181491
17.86 0.0635761
18.05 0.0137838
18.24 0.097868
18.43 0.0173927
18.62 0.0745386
18.81 0.0290773
19 0.0497435
19.19 0.0628267
19.38 -0.00518191
19.57 0.094526
19.76 0.0731826
19.95 0.0598013
20.14 0.0580599
20.33 0.015121
20.52 0.0215618
20.71 0.0176152
20.9 0.0155106
21.09 0.0386121
21.28 0.00840033
21.47 0.0431688
21.66 0.0836453
21.85 0.0301637
22.04 0.0158944
22.23 0.0825728
22.42 0.0407644
22.61 0.046566
22.8 0.158594
22.99 0.0888328
23.18 0.105382
23.37 0.0822278
23.56 0.084612
23.75 0.067581
23.94 0.129525
24.13 0.0422162
24.32 0.0996841
24.51 0.0759828
24.7 0.0394272
24.89 0.0687866
25.08 0.0571916
25.27 0.0734294
25.46 0.0880191
25.65 0.099016
25.84 0.0537133
26.03 0.0464666
26.22 0.0295398
26.41 0.0504177
26.6 0.0287301
26.79 0.0589094
26.98 0.0446217
27.17 0.0350115
27.36 -0.01189
27.55 -0.0126596
27.74 -0.00790193
27.93 0.0389247
28.12 0.0343849
28.31 -0.000454703
28.5 -0.0219456
28.69 0.055059
28.88 0.123755
29.07 0.0643028
29.26 0.138764
29.45 0.496886
29.64 0.0585733
29.83 0.0331892
30.02 0.0198655
30.21 0.00186453
30.4 -0.0185791
30.59 0.00958612
30.78 0.0276362
30.97 0.0045216
31.16 0.0124135
31.35 -0.0133085
31.54 -7.39724e-05
31.73 0.0282819
31.92 0.0415445
32.11 0.003649
32.3 0.0227286
32.49 0.0111674
32.68 0.0110136
32.87 0.0235361
33.06 0.0388033
33.25 0.00534866
33.44 -0.0292377
33.63 0.00736894
33.82 -0.0078928
34.01 0.0298594
34.2 0.0143586
34.39 0.0649453
34.58 0.267723
34.77 0.213037
34.96 0.103684
35.15 0.259062
35.34 0.167461
35.53 0.0215917
35.72 -0.00299589
35.91 -0.012974
36.1 0.00861773
36.29 0.0241375
36.48 -0.0226359
36.67 0.00733716
36.86 0.0352191
37.05 0.162882
37.24 0.226362
37.43 0.0664688
37.62 0.0700396
37.81 0.0268899
38 0.0216109
38.19 -0.0050688
38.38 0.0132644
38.57 0.00762998
38.76 0.016184
38.95 -0.00988533
39.14 -0.00285679
39.33 0.00897628
39.52 0.00668199
39.71 0.00733777
39.9 0.0128598
40.09 0.113272
40.28 0.04326
40.47 0.016333
40.66 0.0136286
40.85 0.0176715
41.04 0.00411783
41.23 0.00797927
41.42 0.00863774
41.61 0.0244195
41.8 0.0121087
41.99 0.00907544
42.18 0.0103508
42.37 0.0176971
42.56 0.000338078
42.75 0.0135999
42.94 0.0120587
43.13 0.00441501
43.32 0.00557429
43.51 0.0275314
43.7 0.0421749
43.89 0.0383469
44.08 0.128107
44.27 0.0684365
44.46 0.0317079
44.65 0.0283941
44.84 0.00364213
45.03 0.00872115
45.22 0.0109677
45.41 0.0134818
45.6 0.0276804
45.79 0.0140881
45.98 -0.0134763
46.17 0.0183038
46.36 0.128154
46.55 0.267876
46.74 0.243723
46.93 0.0662643
47.12 0.0431866
47.31 0.014718
47.5 0.0748235
47.69 0.124372
47.88 0.066503
48.07 0.0445137
48.26 0.134832
48.45 0.122046
48.64 0.314179
48.83 0.238307
49.02 0.0505207
49.21 0.0167437
49.4 -0.00336019
49.59 -0.00365047
49.78 0.0185193
49.97 -0.000870956
50.16 -0.0196567
50.35 0.0120694
50.54 0.0482006
50.73 0.0419449
50.92 0.00500291
51.11 0.0183006
51.3 -0.00262022
51.49 -0.00971693
51.68 -0.00121451
51.87 -0.00125634
52.06 -0.00749704
52.25 0.00625846
52.44 -0.00666387
52.63 0.00633939
52.82 0.00981655
53.01 -0.0128568
53.2 -0.00904251
53.39 0.000237429
53.58 0.0217102
53.77 -0.0233624
53.96 -0.000516772
54.15 -0.00408712
54.34 0.0201249
54.53 0.0232317
54.72 0.0280678
54.91 0.0174125
55.1 -0.016586
55.29 0.000202914
55.48 0.00668238
55.67 0.029496
55.86 0.0751793
56.05 0.0641646
56.24 0.026819
56.43 0.0096096
56.62 0.0225521
56.81 0.0338712
57 -0.012001
57.19 0.0153337
57.38 0.0216549
57.57 -0.0217704
57.76 0.0155208
57.95 0.00563502
58.14 -0.00692523
58.33 0.00982013
58.52 0.0212494
58.71 0.00407391
58.9 -0.000656752
59.09 -0.00212224
59.28 0.000843449
59.47 0.0259915
59.66 0.0262287
59.85 0.0314067
60.04 0.023118
60.23 0.0357354
60.42 0.0109952
60.61 -0.00442173
60.8 0.0205692
60.99 0.0450111
61.18 0.0660406
61.37 0.00351072
61.56 0.0285341
61.75 0.0220562
61.94 -0.0154318
62.13 -0.00713441
62.32 0.00364025
62.51 0.000905479
62.7 0.00757171
62.89 -0.00250159
63.08 0.0477155
63.27 0.118036
63.46 0.00942754
63.65 -0.00972295
63.84 -0.0078716
64.03 0.000383764
64.22 -0.00792785
64.41 0.018492
64.6 0.00830611
64.79 0.0177366
64.98 0.024567
65.17 0.0378109
65.36 0.0309134
65.55 -0.00161534
65.74 6.61309e-05
65.93 0.0199485
66.12 0.0209311
66.31 0.0111645
66.5 0.0130769
66.69 -0.00865381
66.88 0.00827468
67.07 -0.0105551
67.26 0.00757911
67.45 0.00065497
67.64 0.0107438
67.83 -0.0137617
68.02 0.0177309
68.21 0.00565075
68.4 0.0190808
68.59 -0.00655983
68.78 0.0236793
68.97 0.0473642
69.16 0.0617376
69.35 0.0312629
69.54 0.0338209
69.73 0.0140575
69.92 0.0241576
70.11 -0.012183
70.26 -0.0203634

File: 2019-06-19T14_53_56.517003+00_00_LBL_D5.xy
'Id: "" Comment: "Integrate frame perovskite_02_001.gfrmwith cursor Wedge Cursor #2" Operator: "UC Berkeley" Anode: "Co" Scantype: "TwoTheta" TimePerStep: "400"
14.125 -0.0306055
14.305 -0.00813361
14.485 0.0583438
14.665 -0.0127031
14.845 0.0536344
15.025 0.0438129
15.205 0.0371652
15.385 0.0631147
15.565 0.0913897
15.745 0.076529
15.925 0.027623
16.105 0.0376607
16.285 0.0570254
16.465 0.0509026
16.645 0.00631393
16.825 0.0217896
17.005 0.0309883
17.185 0.0529737
17.365 0.0544537
17.545 0.0669972
17.725 0.0551936
17.905 0.0159315
18.085 0.0281295
18.265 0.036977
18.445 0.0279383
18.625 0.0472861
18.805 0.0116433
18.985 0.0341071
19.165 0.0254204
19.345 0.0579058
19.525 0.0411584
19.705 0.0026494
19.885 -0.00945599
20.065 -0.000749727
20.245 0.0195413
20.425 -0.00375463
20.605 0.0242677
20.785 -0.00243498
20.965 0.0317104
21.145 0.0264745
21.325 0.038094
21.505 0.0244752
21.685 0.0340351
21.865 0.0125296
22.045 0.0301843
22.225 0.0259055
22.405 0.0158895
22.585 0.00839189
22.765 0.0606757
22.945 0.0100021
23.125 0.0239943
23.305 0.0366952
23.485 0.0380285
23.665 0.00867512
23.845 0.00724778
24.025 0.027595
24.205 0.0176648
24.385 0.068149
24.565 0.0314576
24.745 0.0177619
24.925 0.0584991
25.105 0.0553376
25.285 0.0346502
25.465 0.0237281
25.645 0.365027
25.825 0.193744
26.005 0.0120188
26.185 0.0236894
26.365 0.044017
26.545 0.019454
26.725 0.0618088
26.905 0.0127055
27.085 0.0116873
27.265 0.0436125
27.445 0.027783
27.625 0.0233071
27.805 0.0351594
27.985 0.0181504
28.165 0.0318906
28.345 0.0518018
28.525 0.112753
28.705 0.122208
28.885 0.358312
29.065 0.303612
29.245 0.166175
29.425 0.721664
29.605 0.441463
29.785 0.107205
29.965 0.0541634
30.145 0.0357866
30.325 0.0192099
30.505 0.0378126
30.685 0.0210109
30.865 0.0251696
31.045 0.01748
31.225 0.0721049
31.405 0.0233276
31.585 0.0408194
31.765 0.0224629
31.945 0.0228401
32.125 0.00121527
32.305 0.00541329
32.485 0.000635408
32.665 0.0240706
32.845 0.0238881
33.025 0.0370995
33.205 0.0583307
33.385 0.158582
33.565 0.0823929
33.745 0.0236269
33.925 0.0164571
34.105 0.00592448
34.285 0.046041
34.465 0.28245
34.645 1.14597
34.825 0.333277
35.005 0.0935445
35.185 0.18217
35.365 0.127273
35.545 0.0466892
35.725 0.026106
35.905 -0.00714399
36.085 0.0110672
36.265 0.00475234
36.445 0.0142745
36.625 0.00186509
36.805 0.0413322
36.985 0.244024
37.165 1.05851
37.345 0.530114
37.525 0.149461
37.705 0.101825
37.885 0.0319218
38.065 0.0556888
38.245 0.0444961
38.425 0.0349678
38.605 0.022756
38.785 -0.00196999
38.965 -0.000637203
39.145 -0.0146709
39.325 -0.00206326
39.505 -0.0034352
39.685 0.00222784
39.865 0.0086265
40.045 0.034086
40.225 0.067757
40.405 0.0266572
40.585 -0.0176532
40.765 0.00663193
40.945 0.0107663
41.125 0.121265
41.305 0.224134
41.485 0.0871453
41.665 0.0553461
41.845 0.0260316
42.025 0.0164862
42.205 -0.00140284
42.385 0.0270042
42.565 0.0130574
42.745 0.0208413
42.925 0.00480035
43.105 0.019496
43.285 0.0210544
43.465 0.0238656
43.645 0.0429704
43.825 0.0267997
44.005 0.196374
44.185 0.200573
44.365 0.0348637
44.545 0.0121912
44.725 0.0183664
44.905 -0.00266278
45.085 -0.00222342
45.265 0.0122821
45.445 0.0261435
45.625 0.0137613
45.805 0.105669
45.985 0.164532
46.165 0.114183
46.345 0.092973
46.525 0.207507
46.705 0.432709
46.885 0.253226
47.065 0.133544
47.245 0.0682224
47.425 0.0990964
47.605 0.460749
47.785 0.383917
47.965 0.0954388
48.145 0.144486
48.325 0.211832
48.505 0.154472
48.685 0.266822
48.865 0.136905
49.045 0.0425666
49.225 0.0196722
49.405 0.0165605
49.585 0.0102319
49.765 0.0192245
49.945 -0.00513435
50.125 -0.0085435
50.305 0.00699806
50.485 0.0219272
50.665 0.0186872
50.845 -0.00519618
51.025 -0.005192
51.205 -0.00587376
51.385 -0.0130824
51.565 -0.0154637
51.745 0.00204718
51.925 0.00374402
52.105 0.00959614
52.285 -0.00351345
52.465 0.0777681
52.645 0.61193
52.825 0.588784
53.005 0.113163
53.185 0.0250898
53.365 0.0523307
53.545 0.0712418
53.725 0.0327125
53.905 0.0238295
54.085 0.0396299
54.265 0.097882
54.445 0.474214
54.625 0.895035
54.805 0.360905
54.985 0.0737817
55.165 0.0229658
55.345 -0.0131738
55.525 -0.00301936
55.705 0.0108016
55.885 0.0305949
56.065 0.0658484
56.245 0.0655099
56.425 0.0464089
56.605 0.0526288
56.785 0.0355011
56.965 0.0158394
57.145 -0.00179213
57.325 0.00850302
57.505 0.00574358
57.685 -0.0112547
57.865 0.00173284
58.045 0.0188484
58.225 0.0285121
58.405 0.0237003
58.585 0.00917893
58.765 0.00745134
58.945 0.0200457
59.125 0.0559489
59.305 0.122159
59.485 0.0725642
59.665 0.0467969
59.845 0.0590687
60.025 0.0402085
60.205 0.031331
60.385 0.0258302
60.565 0.0351403
60.745 0.0310921
60.925 0.0299944
61.105 0.0768187
61.285 0.0791314
61.465 0.0267727
61.645 0.0210315
61.825 0.0171927
62.005 0.000578886
62.185 -0.00996558
62.365 -0.00283315
62.545 0.00605316
62.725 -0.00581352
62.905 -0.010956
63.085 0.00253958
63.265 -0.0120253
63.445 0.0104983
63.625 0.00239836
63.805 0.0144707
63.985 0.0267843
64.165 0.0170816
64.345 0.00330597
64.525 0.0118194
64.705 0.0234614
64.885 0.155692
65.065 0.220627
65.245 0.121181
65.425 0.0279621
65.605 0.00587005
65.785 0.0065165
65.965 0.019593
66.145 0.0245587
66.325 0.0299407
66.505 0.00520506
66.685 0.00356414
66.865 0.0153426
67.045 -0.00836923
67.225 -0.0067924
67.405 -0.00614681
67.585 -0.00932393
67.62 -0.0188773

File: 2019-06-19T14_53_56.517003+00_00_LBL_H9.xy
'Id: "" Comment: "Integrate frame perovskite_03_001.gfrmwith cursor Wedge Cursor #3" Operator: "UC Berkeley" Anode: "Co" Scantype: "TwoTheta" TimePerStep: "400"
13.615 -0.0309372
13.815 -0.0104338
14.015 0.0374417
14.215 0.000117312
14.415 0.0621792
14.615 0.0590122
14.815 0.0187462
15.015 0.0797804
15.215 0.0447797
15.415 0.0265465
15.615 0.0843052
15.815 0.0789116
16.015 0.0287671
16.215 0.0518204
16.415 0.0464564
16.615 0.0959507
16.815 0.158407
17.015 0.0904872
17.215 0.0126534
17.415 0.036898
17.615 0.0465537
17.815 0.112861
18.015 0.0960874
18.215 0.100642
18.415 0.124016
18.615 0.0385143
18.815 0.0149369
19.015 0.0103563
19.215 0.0205906
19.415 0.024566
19.615 0.00507236
19.815 0.0618769
20.015 0.0229175
20.215 0.0200839
20.415 0.0638856
20.615 0.06062
20.815 0.133163
21.015 0.73303
21.215 0.121892
21.415 0.067317
21.615 0.074186
21.815 0.0231199
22.015 0.030696
22.215 -0.0310551
22.415 -0.0185753
22.615 0.0399407
22.815 0.0365639
23.015 -0.000199114
23.215 0.0248307
23.415 -5.78407e-05
23.615 0.0352521
23.815 0.00767956
24.015 0.265835
24.215 0.103699
24.415 0.0109778
24.615 0.0111225
24.815 0.0691274
25.015 0.147455
25.215 3.16256
25.415 1.64897
25.615 0.0787393
25.815 0.0383865
26.015 -0.00631928
26.215 0.0939179
26.415 0.155319
26.615 0.03343
26.815 0.0353562
27.015 0.146455
27.215 -0.0163932
27.415 0.082511
27.615 0.00556178
27.815 0.337056
28.015 0.218361
28.215 0.032602
28.415 0.00691928
28.615 0.00998202
28.815 0.100796
29.015 0.0508369
29.215 0.136802
29.415 1.04372
29.615 12.6252
29.815 0.781159
30.015 0.0878418
30.215 0.0548337
30.415 0.100905
30.615 0.034032
30.815 0.0601364
31.015 -0.0256128
31.215 -0.00481678
31.415 0.0229934
31.615 -0.00968305
31.815 0.446894
32.015 0.177062
32.215 0.375372
32.415 0.527988
32.615 0.0147601
32.815 0.0135294
33.015 0.0209728
33.215 0.0620235
33.415 0.0271092
33.615 0.101179
33.815 2.46817
34.015 3.77278
34.215 0.265193
34.415 0.0280087
34.615 -0.0159732
34.815 0.0695697
35.015 0.135562
35.215 0.00171074
35.415 -0.024283
35.615 0.00573763
35.815 0.0595305
36.015 0.742856
36.215 0.602524
36.415 0.0177882
36.615 -0.00138788
36.815 0.00145704
37.015 -0.00343762
37.215 0.0108447
37.415 0.0446646
37.615 0.0149363
37.815 0.0380426
38.015 0.203083
38.215 1.1866
38.415 1.72962
38.615 0.229894
38.815 0.10454
39.015 0.0398254
39.215 0.096377
39.415 -0.0188214
39.615 0.0159006
39.815 0.0253491
40.015 0.560037
40.215 0.511292
40.415 0.0850151
40.615 0.0147013
40.815 -0.00145809
41.015 0.000804248
41.215 0.0268692
41.415 0.0485692
41.615 0.102584
41.815 0.00217135
42.015 0.0319774
42.215 0.277598
42.415 0.0545683
42.615 0.126903
42.815 0.649964
43.015 0.0280819
43.215 0.0320374
43.415 0.0117237
43.615 0.00337402
43.815 0.0284601
44.015 0.158586
44.215 0.370652
44.415 0.14993
44.615 0.0729013
44.815 -0.00240053
45.015 0.00887679
45.215 0.080762
45.415 0.0595489
45.615 0.238825
45.815 0.0894387
46.015 0.0298177
46.215 0.00157407
46.415 0.00939847
46.615 -0.00399996
46.815 0.00969875
47.015 0.0530156
47.215 0.010961
47.415 0.0253675
47.615 0.0176957
47.815 0.0714758
48.015 0.0685671
48.215 -0.0113844
48.415 0.0015591
48.615 0.0898791
48.815 0.188212
49.015 0.0757787
49.215 0.00186402
49.415 0.0180957
49.615 0.00472971
49.815 0.0327422
50.015 0.0169119
50.215 -0.00570637
50.415 -0.00844442
50.615 0.00834319
50.815 0.0359246
51.015 0.061773
51.215 0.017955
51.415 0.0522822
51.615 -0.00751893
51.815 -0.0042343
52.015 0.032747
52.215 -0.00891285
52.415 -0.00526692
52.615 0.00693949
52.815 0.0382531
53.015 0.0798596
53.215 0.072731
53.415 0.177445
53.615 0.0245949
53.815 0.0322829
54.015 0.0434598
54.215 0.0102204
54.415 -0.0216284
54.615 0.00480944
54.815 0.00431216
55.015 0.029402
55.215 0.0639715
55.415 0.0614119
55.615 0.0272058
55.815 0.0160755
56.015 0.00476305
56.215 0.00139732
56.415 0.034427
56.615 0.0270801
56.815 0.0324485
57.015 0.0171602
57.215 0.0408488
57.415 0.00232936
57.615 -0.000901064
57.815 0.105111
58.015 0.272492
58.215 0.0898583
58.415 0.00952321
58.615 0.013922
58.815 -0.0129208
59.015 0.0342203
59.215 0.00681423
59.415 0.0351912
59.615 0.0563325
59.815 -0.0110287
60.015 0.0179823
60.215 0.00359076
60.415 0.0286415
60.615 0.00384471
60.815 -0.00659753
61.015 -0.0105206
61.215 0.0485256
61.415 0.0916284
61.615 0.111208
61.815 0.2489
62.015 0.069372
62.215 0.01407
62.415 0.0214634
62.615 0.115148
62.815 0.163894
63.015 0.0614859
63.215 0.0178583
63.415 0.0111731
63.615 0.00536684
63.815 0.0159911
64.015 0.0142852
64.215 0.0340218
64.415 -0.00037785
64.615 0.0135128
64.815 0.00686504
65.015 0.00694163
65.215 0.00858941
65.415 0.0124057
65.615 0.0644564
65.815 0.0467262
66.015 0.0353786
66.215 0.061624
66.415 0.362576
66.615 0.532407
66.815 0.197549
67.015 0.0831937
67.215 0.0277257
67.415 0.0318406
67.615 0.0342956
67.815 0.0351771
68.015 -0.0041415
68.215 0.0119183
68.415 0.00192614
68.615 0.00915272
68.815 -0.0028165
69.015 0.0188646
69.215 0.00592002
69.415 0.00883286
69.615 0.00124345
69.815 0.0100653
70.015 0.0161675
70.215 0.00824003
70.415 -0.00782286
70.615 -0.0205489
70.815 -0.00274189
71.015 0.0256279
71.215 0.263313
71.415 0.425833
71.615 0.300237
71.815 0.201887
72.015 0.104942
72.215 0.0203174
72.365 -0.021019

File: 2019-06-21T14_37_13.758897+00_00_LBL_D4.xy
'Id: "" Comment: "Integrate frame perovskite_06_001.gfrmwith cursor Wedge Cursor #1" Operator: "UC Berkeley" Anode: "Co" Scantype: "TwoTheta" TimePerStep: "400"
13.82 -0.0312458
14.02 0.122925
14.22 -0.0297611
14.42 0.0712155
14.62 0.0229749
14.82 -0.000248708
15.02 0.0863659
15.22 0.0453259
15.42 0.0651962
15.62 0.0299318
15.82 0.0477179
16.02 0.0135275
16.22 0.086599
16.42 0.0842911
16.62 0.0441181
16.82 0.0966361
17.02 0.0410898
17.22 0.016423
17.42 0.0353847
17.62 0.048478
17.82 0.0332777
18.02 0.0962494
18.22 0.0606877
18.42 0.0424697
18.62 0.107311
18.82 0.056038
19.02 0.0694429
19.22 0.0015565
19.42 0.0503871
19.62 0.0311436
19.82 0.0189338
20.02 0.000411078
20.22 0.0539191
20.42 0.0284461
20.62 0.0319903
20.82 0.0169795
21.02 0.063593
21.22 0.013644
21.42 0.0323904
21.62 0.00862237
21.82 -0.00676014
22.02 0.0626269
22.22 0.0553881
22.42 0.036886
22.62 0.0393837
22.82 0.0761536
23.02 -0.00546452
23.22 0.0407451
23.42 0.086278
23.62 0.0455615
23.82 0.0525689
24.02 0.0476901
24.22 0.0292596
24.42 0.0541914
24.62 0.0631461
24.82 0.0522556
25.02 0.0668278
25.22 0.0165305
25.42 0.0714082
25.62 0.0156191
25.82 0.0570661
26.02 0.0533108
26.22 0.0340734
26.42 -0.0217764
26.62 0.079199
26.82 0.0454366
27.02 0.0690026
27.22 0.0532549
27.42 0.0490448
27.62 0.0335963
27.82 0.0195671
28.02 0.0190773
28.22 0.00149889
28.42 0.0291099
28.62 0.0692854
28.82 0.118602
29.02 0.0271141
29.22 0.0106485
29.42 0.00238247
29.62 0.0374318
29.82 0.0526573
30.02 0.883435
30.22 0.514502
30.42 0.0182749
30.62 -0.00363239
30.82 -0.0143582
31.02 0.0195233
31.22 0.00413921
31.42 0.0517506
31.62 0.0426568
31.82 0.0217684
32.02 0.0375545
32.22 -0.00289171
32.42 0.0230452
32.62 0.0229841
32.82 0.00223535
33.02 0.0105358
33.22 0.0152899
33.42 0.0176413
33.62 -0.0177515
33.82 0.0258115
34.02 0.025947
34.22 0.0216659
34.42 0.0313633
34.62 0.149614
34.82 0.690814
35.02 0.160682
35.22 0.00954722
35.42 0.0113042
35.62 -0.0026613
35.82 0.0295642
36.02 0.0335524
36.22 0.500827
36.42 0.641556
36.62 0.0320144
36.82 -0.00213733
37.02 0.0185568
37.22 0.0581166
37.42 0.801411
37.62 0.416662
37.82 0.0376478
38.02 0.0232008
38.22 -0.00729684
38.42 0.0407077
38.62 0.149437
38.82 0.0237606
39.02 0.0287172
39.22 0.00884278
39.42 -0.00632335
39.62 0.0168296
39.82 0.0190176
40.02 -0.000877781
40.22 -0.00135174
40.42 0.0203312
40.62 -0.00686169
40.82 0.0323104
41.02 -0.00164704
41.22 0.00804275
41.42 0.0922267
41.62 0.0288243
41.82 0.0104921
42.02 -0.00337785
42.22 0.017796
42.42 0.00545812
42.62 -0.00362371
42.82 0.00148786
43.02 -0.00555675
43.22 0.0263102
43.42 -0.00846489
43.62 0.0210342
43.82 0.0118666
44.02 0.00802855
44.22 0.0229922
44.42 0.026773
44.62 0.0855403
44.82 0.180197
45.02 0.0107522
45.22 0.0127986
45.42 -0.00201011
45.62 -0.000770777
45.82 0.00461372
46.02 -0.000315606
46.22 0.0255257
46.42 0.0104576
46.62 0.0112385
46.82 -0.0136174
47.02 0.00768216
47.22 0.0290262
47.42 0.0281782
47.62 0.262711
47.82 0.108707
48.02 0.276295
48.22 0.988172
48.42 0.204445
48.62 0.0193605
48.82 0.000305345
49.02 0.143585
49.22 0.183481
49.42 0.0232971
49.62 0.000350609
49.82 -0.0019796
50.02 0.0509525
50.22 0.28457
50.42 0.265307
50.62 0.033213
50.82 0.022
51.02 0.00476521
51.22 -0.0186604
51.42 0.00508565
51.62 0.0134004
51.82 0.076325
52.02 0.260533
52.22 0.0348784
52.42 0.0160447
52.62 0.0104448
52.82 -0.00405223
53.02 0.00931198
53.22 0.0108959
53.42 0.0108717
53.62 0.0268715
53.82 0.0861256
54.02 0.0338924
54.22 -0.00777308
54.42 -0.0080836
54.62 -0.019592
54.82 -0.00997777
55.02 0.0175648
55.22 0.00534363
55.42 -0.00619388
55.62 0.00511386
55.82 0.0174577
56.02 0.0139189
56.22 0.00279466
56.42 0.0200651
56.62 0.0136144
56.82 0.0165408
57.02 0.067445
57.22 0.0329159
57.42 0.0284979
57.62 0.0623649
57.82 0.274934
58.02 0.187102
58.22 0.0212859
58.42 0.0147377
58.62 0.00894526
58.82 0.0216388
59.02 0.0335611
59.22 0.0240268
59.42 0.0216205
59.62 0.0164412
59.82 0.0140902
60.02 0.0167648
60.22 0.0244075
60.42 0.0175181
60.62 0.00421671
60.82 0.00849655
61.02 0.01011
61.22 0.00788148
61.42 0.0240805
61.62 0.0506664
61.82 0.159297
62.02 0.0998229
62.22 0.0518951
62.42 0.0813451
62.62 0.316487
62.82 0.165482
63.02 0.0209827
63.22 0.0175042
63.42 0.0279564
63.62 0.0105778
63.82 0.0222875
64.02 0.00690244
64.22 -0.00947086
64.42 -0.000911876
64.62 0.00903007
64.82 0.0814242
65.02 0.113727
65.22 0.0438849
65.42 0.0162586
65.62 0.0135201
65.82 0.00872729
66.02 0.00279506
66.22 -0.0121637
66.42 0.0120131
66.62 0.00788334
66.82 -0.00623949
67.02 0.00561487
67.22 0.00195438
67.42 0.0150058
67.62 0.0137783
67.82 0.0506808
68.02 0.0273966
68.22 -0.00176657
68.42 0.0196306
68.62 -0.00450687
68.82 -0.0016319
69.02 -0.00185612
69.22 0.00914739
69.42 0.00348464
69.62 -0.000669595
69.82 -0.000633459
70.02 0.0428555
70.22 0.0187169
70.42 -0.0122026
70.62 0.00283602
70.82 0.0149281
71.02 0.0382583
71.22 0.119126
71.42 0.107702
71.62 0.0379888
71.82 -0.00658251
72.02 0.00292056
72.22 0.0421913
72.385 -0.0183