Folder: rapid/data/xrd/xy (part 15)

File: 2019-08-02T12_18_03.108790+00_00_LBL_1.xy
'Id: "" Comment: "Integrate frame 20190806_tbutyl_phenylnh30_01_002.gfrmwith cursor Wedge Cursor #1" Operator: "UC Berkeley" Anode: "Co" Scantype: "TwoTheta" TimePerStep: "1200"
20.225 -0.0175202
20.4 0.0237853
20.575 0.00373796
20.75 0.0167953
20.925 0.0262123
21.1 0.0228144
21.275 0.0268077
21.45 0.0554726
21.625 0.0126107
21.8 0.0123062
21.975 0.0391289
22.15 0.0169677
22.325 0.025515
22.5 0.0303029
22.675 0.0400862
22.85 0.0101539
23.025 0.00986162
23.2 0.0139813
23.375 0.0370742
23.55 0.0205418
23.725 -0.00707638
23.9 -0.00496994
24.075 0.0164532
24.25 0.02535
24.425 -0.00536749
24.6 0.00436196
24.775 0.0098603
24.95 0.0467449
25.125 0.0364627
25.3 0.0239514
25.475 0.0108696
25.65 -0.00936536
25.825 -0.000890043
26 0.0117746
26.175 0.0364948
26.35 0.0153984
26.525 0.0101386
26.7 0.0186732
26.875 0.00631251
27.05 0.0142722
27.225 0.00780082
27.4 0.0358566
27.575 -0.0011493
27.75 0.00488708
27.925 0.183268
28.1 0.0360659
28.275 -0.00721398
28.45 0.0305205
28.625 0.0158657
28.8 0.0217789
28.975 0.117348
29.15 0.0214551
29.325 -0.000817933
29.5 -0.00901857
29.675 0.0050477
29.85 0.0044686
30.025 0.00550873
30.2 0.0304055
30.375 0.0219102
30.55 -0.014868
30.725 0.0136869
30.9 0.0587436
31.075 0.0168464
31.25 0.0104503
31.425 0.00460914
31.6 0.0220756
31.775 0.0171501
31.95 -0.00296156
32.125 0.00245853
32.3 0.0549904
32.475 0.0833408
32.65 -0.0120914
32.825 -0.000591628
33 0.073688
33.175 0.00109383
33.35 -0.00178277
33.525 -0.00100703
33.7 0.00771745
33.875 0.00887026
34.05 0.00859926
34.225 -0.0137291
34.4 -0.00298792
34.575 0.0295913
34.75 0.0867146
34.925 0.0124981
35.1 0.00918122
35.275 0.00152759
35.45 0.00646419
35.625 0.00177508
35.8 0.0106402
35.975 -0.00873226
36.15 0.000168161
36.325 0.0225482
36.5 0.000389149
36.675 -0.00245445
36.85 1.83222e-05
37.025 0.0133479
37.2 0.00376903
37.375 -0.000216964
37.55 0.00224249
37.725 -0.0126314
37.9 -0.000348971
38.075 -0.00127637
38.25 -0.0110919
38.425 -0.00305312
38.6 -0.0109908
38.775 -0.00251466
38.95 0.00288293
39.125 0.000542978
39.3 0.00822134
39.475 -0.00842389
39.65 0.0011354
39.825 0.00438648
40 0.0118416
40.175 0.0101711
40.35 0.00130671
40.525 0.017691
40.7 0.00721877
40.875 0.00884387
41.05 -0.00599409
41.225 -0.00212723
41.4 -0.00510181
41.575 0.0140837
41.75 0.016615
41.925 -0.00266245
42.1 0.0155618
42.275 0.00194163
42.45 0.0077154
42.625 0.00718542
42.8 -0.0038745
42.975 0.0103756
43.15 0.0112707
43.325 0.000786938
43.5 -0.000695037
43.675 0.000871498
43.85 0.00430908
44.025 0.00751254
44.2 0.00673732
44.375 0.00397695
44.55 0.0101535
44.725 -0.000487178
44.9 -0.00699729
45.075 0.00347896
45.25 0.00396136
45.425 0.00158809
45.6 0.0014654
45.775 0.0080244
45.95 0.016207
46.125 0.00816071
46.3 0.00808279
46.475 -0.000415144
46.65 -1.09755e-05
46.825 -0.00466437
47 -0.00621844
47.175 -0.00145124
47.35 -0.00868147
47.525 -0.00585834
47.7 -0.0100519
47.875 -0.00289476
48.05 0.0086417
48.225 -0.000984945
48.4 0.00073309
48.575 0.00624656
48.75 0.00135069
48.925 0.00761445
49.1 -0.000978973
49.275 -0.00379976
49.45 0.00289528
49.625 -0.00632286
49.8 -0.00587825
49.975 0.00198624
50.15 -0.00705662
50.325 0.00265301
50.5 -0.00242028
50.675 -0.00136712
50.85 -0.00618642
51.025 -0.00135053
51.2 0.0029781
51.375 -0.00309792
51.55 -0.00927337
51.725 -0.00330396
51.9 0.000541999
52.075 0.00496088
52.25 -0.00196767
52.425 0.00473164
52.6 -0.00196459
52.775 0.00478854
52.95 0.000614906
53.125 -0.00476584
53.3 0.00471968
53.475 -0.00032021
53.65 0.00288959
53.825 -0.00197253
54 0.00309369
54.175 0.0042531
54.35 0.00306403
54.525 -0.00424238
54.7 -0.00266115
54.875 0.00388816
55.05 -0.00107824
55.225 -0.00655209
55.4 0.00267386
55.575 0.00446543
55.75 0.00442164
55.925 -0.00327271
56.1 -0.000714599
56.275 0.00803372
56.45 0.00214861
56.625 -0.00420487
56.8 0.00256511
56.975 0.00617923
57.15 -0.00555566
57.325 0.00499386
57.5 0.00126181
57.675 0.00987637
57.85 0.00722843
58.025 -0.00487679
58.2 0.00174588
58.375 -0.00134635
58.55 0.00756686
58.725 0.00682237
58.9 -0.00143092
59.075 0.00582483
59.25 0.00822753
59.425 0.00741324
59.6 -0.00339119
59.775 0.00164706
59.95 -0.00531238
60.125 0.000747893
60.3 0.00354404
60.475 -0.00188422
60.65 0.00204326
60.825 0.00417452
61 0.00320305
61.175 0.0103497
61.35 -0.00421707
61.525 0.00188697
61.7 -0.00122868
61.875 0.00415349
62.05 0.00334452
62.225 0.0010155
62.4 -0.00534337
62.575 0.000919426
62.75 0.00770268
62.925 -0.00151258
63.1 -0.00114487
63.275 -0.00130797
63.45 -0.000473714
63.625 -0.00168878
63.8 0.00501697
63.975 0.00136577
64.15 0.00613898
64.325 0.00758547
64.5 0.0049257
64.675 0.00351091
64.85 0.0121328
65.025 -0.00152173
65.2 -0.000545456
65.375 0.00817208
65.55 -0.000344341
65.725 -0.00360543
65.9 -0.00281882
66.075 -0.00273214
66.25 0.00780078
66.425 0.00167371
66.6 -0.000309473
66.775 0.00722154
66.95 0.00368925
67.125 0.00793158
67.3 0.00745842
67.475 0.00209757
67.65 0.00187462
67.825 0.00546765
68 0.00354035
68.175 0.00728958
68.35 0.00319684
68.525 0.00480834
68.7 -0.00303247
68.875 -0.00525188
69.05 -0.00603124
69.225 -0.00117815
69.4 -0.00216138
69.575 0.00490801
69.75 -0.00269358
69.925 0.00240863
70.1 0.00420316
70.275 -0.00349738
70.45 0.000741212
70.625 0.00547976
70.8 -2.62138e-06
70.975 -0.00378972
71.15 0.00333528
71.325 0.00553811
71.5 0.00244064
71.675 0.00712292
71.85 -0.00116235
72.025 0.00569283
72.19 -0.00620592

File: 2019-08-02T14_45_54.346271+00_00_LBL_A2.xy
'Id: "" Comment: "Integrate frame 20190806_tbutyl_phenylnh30_03_002.gfrmwith cursor Wedge Cursor #2" Operator: "UC Berkeley" Anode: "Co" Scantype: "TwoTheta" TimePerStep: "1200"
15.61 -0.0175295
15.81 0.0190656
16.01 0.0421735
16.21 0.0425255
16.41 0.0470052
16.61 -0.00488093
16.81 0.0325205
17.01 0.0353584
17.21 0.0216064
17.41 0.0286453
17.61 0.0586827
17.81 0.0516972
18.01 0.0374263
18.21 0.0867804
18.41 0.0372283
18.61 0.0346842
18.81 0.0178232
19.01 0.0199447
19.21 0.0326898
19.41 0.00813731
19.61 0.0162023
19.81 0.0513264
20.01 0.0270148
20.21 -0.00689149
20.41 0.0449537
20.61 0.0468894
20.81 0.0557407
21.01 0.0202647
21.21 0.0313897
21.41 0.212608
21.61 0.366371
21.81 0.0202343
22.01 0.0380037
22.21 0.0237612
22.41 0.0342402
22.61 0.0177712
22.81 0.0189507
23.01 0.0325471
23.21 0.0337061
23.41 0.0243823
23.61 0.00623671
23.81 0.0369548
24.01 0.0228915
24.21 0.0443354
24.41 0.0250221
24.61 0.0402113
24.81 0.009478
25.01 0.0920272
25.21 0.178812
25.41 0.0348002
25.61 0.0309881
25.81 0.0544103
26.01 0.118256
26.21 0.139149
26.41 -0.00859814
26.61 -0.00602823
26.81 0.0131026
27.01 0.0221525
27.21 0.0616208
27.41 0.514806
27.61 0.0825862
27.81 0.00953457
28.01 0.0452522
28.21 0.0355442
28.41 0.22573
28.61 0.316944
28.81 0.0302492
29.01 0.0278269
29.21 0.00113495
29.41 0.0236187
29.61 0.0489817
29.81 0.0320036
30.01 0.0286069
30.21 0.0741728
30.41 0.0855798
30.61 0.0430399
30.81 0.180009
31.01 0.176493
31.21 -0.0129962
31.41 -0.00199485
31.61 0.0248051
31.81 0.00894214
32.01 -0.00393851
32.21 -0.00356919
32.41 -0.00468708
32.61 0.190433
32.81 0.264544
33.01 0.0338081
33.21 0.0633508
33.41 0.457167
33.61 0.0960453
33.81 0.0244002
34.01 0.224525
34.21 0.117867
34.41 0.0280944
34.61 -0.014438
34.81 0.0336988
35.01 -0.00797278
35.21 0.00315179
35.41 0.030362
35.61 0.0278173
35.81 0.214214
36.01 0.446307
36.21 0.0695095
36.41 0.0671661
36.61 0.181542
36.81 0.0979829
37.01 0.00383157
37.21 0.00558279
37.41 0.00349347
37.61 -0.00596155
37.81 0.0553965
38.01 0.484125
38.21 0.293464
38.41 0.123671
38.61 0.12004
38.81 0.0581564
39.01 0.0218207
39.21 -0.00268973
39.41 0.000386365
39.61 0.0215308
39.81 0.0627314
40.01 0.0307916
40.21 0.242087
40.41 0.167441
40.61 0.00115817
40.81 0.0110308
41.01 -0.0134795
41.21 0.0203818
41.41 0.0548776
41.61 0.033437
41.81 0.0376375
42.01 0.429342
42.21 0.221412
42.41 0.00591489
42.61 0.0336095
42.81 0.101688
43.01 0.137341
43.21 0.0186965
43.41 -0.00918861
43.61 0.151012
43.81 0.82211
44.01 0.169049
44.21 0.0130453
44.41 0.00444518
44.61 0.00242949
44.81 0.132932
45.01 0.0281521
45.21 -0.00795759
45.41 0.069743
45.61 0.00709228
45.81 0.0288543
46.01 0.0930333
46.21 0.290912
46.41 0.203595
46.61 0.00522438
46.81 0.026615
47.01 0.0717811
47.21 0.0307563
47.41 0.0140258
47.61 0.00236473
47.81 0.0669472
48.01 0.0204594
48.21 -0.00395241
48.41 -0.00394558
48.61 0.0328171
48.81 0.0115701
49.01 0.00404093
49.21 0.0242256
49.41 0.0186429
49.61 0.0638267
49.81 0.363748
50.01 0.805887
50.21 0.119024
50.41 0.0100685
50.61 -0.00993629
50.81 0.000247175
51.01 -0.00751896
51.21 -2.47106e-05
51.41 -0.00834249
51.61 0.000646578
51.81 0.0181948
52.01 0.0216714
52.21 0.0042885
52.41 0.0389064
52.61 0.178223
52.81 0.10582
53.01 0.132776
53.21 0.0538835
53.41 -0.0121279
53.61 0.12853
53.81 0.32332
54.01 0.0387688
54.21 0.0246593
54.41 0.0201766
54.61 -0.010386
54.81 0.0574604
55.01 0.0640539
55.21 0.0480153
55.41 0.147416
55.61 0.107983
55.81 0.026285
56.01 -0.001804
56.21 0.049539
56.41 0.0645072
56.61 0.00143103
56.81 0.00238295
57.01 -0.0042102
57.21 0.0116044
57.41 0.0195529
57.61 0.0019458
57.81 -0.00217469
58.01 0.0121682
58.21 0.00294979
58.41 0.032953
58.61 0.00634935
58.81 0.00519457
59.01 0.0344076
59.21 0.0195106
59.41 -0.00176845
59.61 0.00175854
59.81 -0.00948063
60.01 0.00592165
60.21 0.035458
60.41 0.0124968
60.61 -0.00540453
60.81 0.0366084
61.01 0.0375366
61.21 0.0361109
61.41 0.0167569
61.61 0.0382752
61.81 0.0361509
62.01 0.00231169
62.21 0.00470832
62.41 -0.00880794
62.61 0.00361088
62.81 0.0187924
63.01 0.0544711
63.21 0.0511343
63.41 0.00434849
63.61 0.00579523
63.81 0.00128164
64.01 0.0095386
64.21 0.0235391
64.41 0.0397283
64.61 0.0357502
64.81 0.0299225
65.01 0.00845286
65.21 0.0101908
65.41 0.0132361
65.61 0.0315383
65.81 0.039115
66.01 0.0329882
66.21 0.0325267
66.41 0.0413572
66.61 0.0592164
66.81 0.0296199
67.01 -0.00264129
67.21 0.0168101
67.41 0.0399495
67.61 0.0382036
67.81 0.00824408
68.01 0.0445538
68.21 0.0200383
68.41 0.00026252
68.61 0.00417319
68.81 0.0200305
69.01 0.0133454
69.21 0.0412471
69.41 0.0498421
69.61 0.020485
69.81 0.0116682
70.01 0.0127651
70.21 0.0325428
70.41 0.0498505
70.61 0.0268831
70.81 0.00312349
71.01 0.00854417
71.21 -0.0105056
71.41 0.0204372
71.61 0.0212588
71.81 0.0225332
72.01 -0.00629187
72.21 0.00177697
72.41 0.0135089
72.61 0.0320616
72.81 0.0115677
73.01 0.0306074
73.21 0.0349096
73.41 0.0280751
73.61 0.0119406
73.81 0.029534
74.01 0.0194511
74.21 0.00300124
74.41 -0.00827847
74.525 -0.0104873

File: 2019-08-08T16_56_58.410591+00_00_LBL_A4.xy
'Id: "" Comment: "Integrate frame 4fluorobenzyl_02_001.gfrmwith cursor Wedge Cursor #2" Operator: "UC Berkeley" Anode: "Co" Scantype: "TwoTheta" TimePerStep: "500"
13.245 -0.036915
13.45 1.68313
13.655 1.09993
13.86 0.0120301
14.065 0.0383734
14.27 0.0180517
14.475 0.0671142
14.68 0.080473
14.885 0.0603084
15.09 -0.0144512
15.295 0.0876334
15.5 0.0548578
15.705 0.0575856
15.91 0.0601117
16.115 0.0254182
16.32 0.053943
16.525 0.0288534
16.73 -0.0209484
16.935 0.0914123
17.14 0.130834
17.345 0.0724474
17.55 0.0394545
17.755 0.0760263
17.96 0.055307
18.165 0.0204525
18.37 0.0774054
18.575 0.0857926
18.78 0.0591608
18.985 0.0892627
19.19 0.0308231
19.395 0.0546654
19.6 0.0243629
19.805 0.02425
20.01 0.0308939
20.215 0.0992565
20.42 0.0517632
20.625 0.0460598
20.83 0.00782704
21.035 0.0419485
21.24 0.0606092
21.445 0.0882943
21.65 0.0563055
21.855 0.0219196
22.06 -0.00423323
22.265 0.079976
22.47 0.0457899
22.675 0.0285413
22.88 0.0280534
23.085 0.0501603
23.29 0.0193468
23.495 0.384482
23.7 0.141056
23.905 0.0103684
24.11 0.00447016
24.315 0.0508921
24.52 0.00469307
24.725 0.0717026
24.93 0.0594291
25.135 0.191048
25.34 0.122262
25.545 0.113607
25.75 0.077604
25.955 0.0426496
26.16 0.0505137
26.365 0.000890774
26.57 0.0158494
26.775 0.0771952
26.98 0.0662002
27.185 0.0537973
27.39 -0.000680694
27.595 0.0305346
27.8 0.0174724
28.005 0.0236215
28.21 0.0991192
28.415 0.0322343
28.62 0.16374
28.825 0.269759
29.03 0.0314425
29.235 0.0238948
29.44 0.054175
29.645 0.072539
29.85 0.355111
30.055 2.76118
30.26 1.18567
30.465 0.0683384
30.67 -0.0188292
30.875 0.0466764
31.08 0.0477755
31.285 -0.000634892
31.49 0.0132614
31.695 0.01986
31.9 0.00414418
32.105 0.014246
32.31 0.0375024
32.515 0.037209
32.72 0.0366721
32.925 0.0160867
33.13 0.0248057
33.335 0.00560557
33.54 0.00960904
33.745 -0.0187496
33.95 0.0137215
34.155 0.0112363
34.36 0.0352548
34.565 0.239116
34.77 1.12462
34.975 0.303657
35.18 0.00453279
35.385 0.0189565
35.59 -0.00127313
35.795 -0.00797188
36 0.100158
36.205 0.892745
36.41 1.42967
36.615 0.111739
36.82 0.00343007
37.025 0.0352315
37.23 0.189693
37.435 0.96149
37.64 0.598448
37.845 0.0242491
38.05 0.0181894
38.255 0.00336813
38.46 0.111062
38.665 0.172305
38.87 0.0315563
39.075 0.0296391
39.28 0.00606599
39.485 0.000163226
39.69 -0.00891332
39.895 0.00434313
40.1 -0.0201449
40.305 -0.00253541
40.51 0.0182239
40.715 0.0583929
40.92 0.0294182
41.125 0.0176255
41.33 0.13086
41.535 0.137535
41.74 0.00745172
41.945 0.00466975
42.15 0.0308524
42.355 0.0105669
42.56 0.0269968
42.765 0.0084619
42.97 0.00194174
43.175 0.00515404
43.38 0.0215049
43.585 -0.00290896
43.79 0.00326875
43.995 0.0263143
44.2 -0.0126613
44.405 0.0234857
44.61 0.131753
44.815 0.253477
45.02 0.0718565
45.225 0.021905
45.43 0.00188465
45.635 -0.0196851
45.84 0.0202525
46.045 0.00712149
46.25 0.0312703
46.455 0.00400871
46.66 0.00515589
46.865 -0.000639117
47.07 0.00112769
47.275 0.0274617
47.48 0.131606
47.685 0.242609
47.89 0.289687
48.095 0.871726
48.3 1.11886
48.505 0.181524
48.71 0.0514188
48.915 0.140996
49.12 0.282561
49.325 0.121464
49.53 0.00366357
49.735 0.0143798
49.94 0.115561
50.145 0.410121
50.35 0.92362
50.555 0.243302
50.76 0.0240162
50.965 0.0333965
51.17 0.000366579
51.375 -0.00427545
51.58 0.0517192
51.785 0.164998
51.99 0.294547
52.195 0.178362
52.4 0.0107644
52.605 -0.0128784
52.81 -0.014511
53.015 0.0108191
53.22 -0.0187643
53.425 0.0428964
53.63 0.101585
53.835 0.19899
54.04 0.0779
54.245 0.00210886
54.45 0.0018166
54.655 0.00487443
54.86 0.0242997
55.065 0.039339
55.27 0.00783971
55.475 0.0220552
55.68 -0.00789361
55.885 0.00513712
56.09 0.0303556
56.295 -0.000882209
56.5 0.00826211
56.705 -0.00800565
56.91 0.0553805
57.115 0.0550282
57.32 0.0562502
57.525 0.0749698
57.73 0.172003
57.935 0.365513
58.14 0.218046
58.345 0.0353875
58.55 0.0155491
58.755 -0.0109865
58.96 0.00309916
59.165 -0.00820314
59.37 0.00462076
59.575 0.00268066
59.78 0.0194366
59.985 0.0276887
60.19 0.0233513
60.395 0.0240223
60.6 0.0242816
60.805 0.0172861
61.01 -0.0107609
61.215 0.0282416
61.42 0.0646857
61.625 0.0898612
61.83 0.153336
62.035 0.125582
62.24 0.0875272
62.445 0.143831
62.65 0.174295
62.855 0.133269
63.06 0.0350224
63.265 0.0241135
63.47 0.00390626
63.675 0.00263319
63.88 0.010543
64.085 -0.00417584
64.29 0.017614
64.495 0.0481182
64.7 0.0917273
64.905 0.0923761
65.11 0.10887
65.315 0.0478202
65.52 0.068879
65.725 0.0295533
65.93 0.00794437
66.135 0.0144767
66.34 0.00638627
66.545 0.00972984
66.75 0.0138568
66.955 -0.00147101
67.16 0.0269797
67.365 0.00765222
67.57 0.00474337
67.775 0.0464206
67.98 0.048633
68.185 0.0334929
68.39 0.0220846
68.595 0.0158124
68.8 0.000685402
69.005 -0.0104388
69.21 0.0166654
69.415 0.0112523
69.62 0.0259857
69.825 0.0344887
70.03 0.0463757
70.235 0.0485555
70.44 0.0185187
70.645 0.0194645
70.85 0.0502811
71.055 0.164369
71.26 0.289647
71.465 0.191675
71.67 0.0733541
71.875 0.00152892
72.08 0.0186333
72.285 -0.00045
72.49 0.027641
72.695 0.0101189
72.9 0.0180408
73.105 0.0634652
73.31 0.0709723
73.515 0.0777252
73.72 0.0446194
73.925 0.0630527
74.13 0.00883225
74.335 -0.0157747
74.54 0.00837863
74.73 -0.0164704

File: 2019-08-08T16_56_58.410591+00_00_LBL_C7.xy
'Id: "" Comment: "Integrate frame 4fluorobenzyl_03_001.gfrmwith cursor Wedge Cursor #3" Operator: "UC Berkeley" Anode: "Co" Scantype: "TwoTheta" TimePerStep: "500"
13.315 -0.0316202
13.52 0.622903
13.725 0.606298
13.93 -0.00905325
14.135 0.0434013
14.34 0.0584857
14.545 0.0255582
14.75 0.131276
14.955 0.0669716
15.16 0.0708743
15.365 0.0647732
15.57 0.0712326
15.775 0.057183
15.98 0.0418745
16.185 0.0100363
16.39 0.0515382
16.595 0.0137954
16.8 -0.0140306
17.005 0.0336951
17.21 -0.0094081
17.415 0.0473652
17.62 0.0179252
17.825 0.0993675
18.03 0.0803126
18.235 -0.0262355
18.44 0.0715987
18.645 0.113157
18.85 0.0687061
19.055 0.0791963
19.26 0.0225216
19.465 0.0295248
19.67 0.0332284
19.875 0.0413264
20.08 0.0126822
20.285 0.0213662
20.49 0.00165024
20.695 0.0246864
20.9 -0.00664971
21.105 0.0503379
21.31 0.0503111
21.515 0.00467943
21.72 0.066964
21.925 0.0294639
22.13 0.0116579
22.335 0.0380883
22.54 0.0533694
22.745 0.0642684
22.95 0.0332397
23.155 0.0368443
23.36 0.140888
23.565 1.30362
23.77 0.144749
23.975 0.0713272
24.18 0.0619448
24.385 0.0308611
24.59 0.0955288
24.795 0.0152202
25 0.0310684
25.205 0.0753454
25.41 0.0453613
25.615 0.0214718
25.82 0.0643325
26.025 0.0767169
26.23 0.00738072
26.435 0.043758
26.64 0.0330723
26.845 0.0367792
27.05 0.0321864
27.255 0.0625362
27.46 0.0829158
27.665 0.0188141
27.87 0.0395079
28.075 -0.000469487
28.28 0.0580532
28.485 0.0121676
28.69 0.097142
28.895 0.0287404
29.1 0.0457813
29.305 0.026623
29.51 0.0356944
29.715 0.0920381
29.92 0.203707
30.125 2.53997
30.33 0.443653
30.535 0.0452022
30.74 0.00224937
30.945 0.0179636
31.15 0.0405526
31.355 0.0332938
31.56 -0.00311005
31.765 0.0586757
31.97 0.0400598
32.175 0.0174146
32.38 0.0314941
32.585 0.0546997
32.79 0.0218465
32.995 0.0179744
33.2 0.0163081
33.405 0.00486445
33.61 0.0234588
33.815 -0.0165681
34.02 0.0315688
34.225 0.00380829
34.43 0.0385807
34.635 0.0919751
34.84 0.479802
35.045 0.0878739
35.25 0.00148487
35.455 0.000993801
35.66 0.0193526
35.865 0.0396011
36.07 0.205844
36.275 2.70683
36.48 2.04066
36.685 0.104043
36.89 0.0157438
37.095 0.0125415
37.3 0.0501977
37.505 0.446158
37.71 0.136515
37.915 -0.017968
38.12 0.0361694
38.325 0.0304151
38.53 0.172678
38.735 0.106838
38.94 0.0323079
39.145 0.0221235
39.35 0.0171737
39.555 0.0160836
39.76 -0.00956902
39.965 0.0493331
40.17 0.058444
40.375 -0.0108024
40.58 0.0132606
40.785 0.0215706
40.99 0.0257061
41.195 0.0441495
41.4 1.15256
41.605 0.721891
41.81 0.0397937
42.015 0.040188
42.22 0.0283004
42.425 0.0239989
42.63 0.0507159
42.835 0.023266
43.04 -0.015006
43.245 0.0137037
43.45 0.0338854
43.655 0.00438769
43.86 -0.00155075
44.065 -0.00137882
44.27 0.0272798
44.475 0.00355185
44.68 0.116302
44.885 0.119172
45.09 0.0106947
45.295 0.0375704
45.5 0.000784542
45.705 -0.00455114
45.91 -0.0206914
46.115 0.0379683
46.32 0.0797957
46.525 0.0154651
46.73 0.00575083
46.935 0.0206764
47.14 0.00970295
47.345 0.0479784
47.55 0.0805226
47.755 0.202469
47.96 0.39869
48.165 4.07532
48.37 1.6763
48.575 0.175576
48.78 0.117631
48.985 0.117639
49.19 0.241832
49.395 0.0996917
49.6 0.0166222
49.805 0.0450518
50.01 0.1846
50.215 1.15822
50.42 2.07468
50.625 0.214287
50.83 0.0437319
51.035 0.0161651
51.24 -0.000705884
51.445 0.0130221
51.65 0.0395647
51.855 0.105996
52.06 0.166445
52.265 0.10365
52.47 0.00334757
52.675 0.00207801
52.88 0.017967
53.085 0.00945233
53.29 -0.00870355
53.495 0.014177
53.7 0.042675
53.905 0.0618768
54.11 0.0384648
54.315 -0.00940089
54.52 -0.00458872
54.725 -0.0152471
54.93 0.0071869
55.135 0.0491534
55.34 0.0125139
55.545 0.0225052
55.75 0.0132183
55.955 0.00708988
56.16 0.0160415
56.365 0.0530048
56.57 0.0153217
56.775 0.0289941
56.98 0.0626664
57.185 0.054886
57.39 0.0631382
57.595 0.0883239
57.8 0.434346
58.005 1.08628
58.21 0.220209
58.415 0.0463958
58.62 0.0158825
58.825 -0.00623573
59.03 0.0424599
59.235 -0.00168937
59.44 0.0387256
59.645 0.0123697
59.85 0.0283762
60.055 0.0210669
60.26 -0.0108582
60.465 0.0201911
60.67 0.0120569
60.875 0.0136618
61.08 0.030826
61.285 0.00445612
61.49 0.0756013
61.695 0.17349
61.9 0.627099
62.105 0.392751
62.31 0.0576141
62.515 0.177287
62.72 0.166486
62.925 0.121595
63.13 0.0306254
63.335 0.00168869
63.54 0.0447937
63.745 0.0166989
63.95 -1.25141e-05
64.155 0.00731191
64.36 0.00170762
64.565 0.0264075
64.77 0.0293224
64.975 0.0800865
65.18 0.0380754
65.385 0.03187
65.59 0.0596121
65.795 0.0103721
66 0.0145291
66.205 0.000841362
66.41 0.0191415
66.615 0.01704
66.82 0.0090002
67.025 -0.000911223
67.23 0.00319557
67.435 0.00853366
67.64 0.0653182
67.845 0.0413273
68.05 0.0498915
68.255 0.0409227
68.46 -0.0162215
68.665 -0.00057201
68.87 0.0205944
69.075 -0.00274706
69.28 0.00475771
69.485 -0.00834357
69.69 0.027882
69.895 0.0148429
70.1 0.0447053
70.305 0.00715732
70.51 -0.00885319
70.715 0.00936303
70.92 0.0672657
71.125 0.282039
71.33 0.458937
71.535 0.286207
71.74 0.0511441
71.945 0.0029861
72.15 0.0163592
72.355 0.0118963
72.56 0.0159421
72.765 -0.00514818
72.97 0.00669351
73.175 0.0219293
73.38 0.0797526
73.585 0.0984482
73.79 0.0140465
73.995 -0.00153283
74.2 0.00664062
74.38 -0.0154669

File: 2019-08-08T16_56_58.410591+00_00_LBL_E3.xy
'Id: "" Comment: "Integrate frame 4fluorobenzyl_01_001.gfrmwith cursor Wedge Cursor #1" Operator: "UC Berkeley" Anode: "Co" Scantype: "TwoTheta" TimePerStep: "500"
13.71 -0.0271592
13.91 0.0145551
14.11 0.032836
14.31 0.0126171
14.51 0.0241136
14.71 0.0534627
14.91 0.0953751
15.11 0.0663206
15.31 0.0639305
15.51 0.0387276
15.71 0.052222
15.91 0.0220901
16.11 0.0459686
16.31 0.0390372
16.51 0.000287026
16.71 0.0320173
16.91 0.0527033
17.11 0.0354754
17.31 0.0536842
17.51 0.0536501
17.71 0.00456498
17.91 0.0127404
18.11 0.0158506
18.31 0.03747
18.51 0.0701006
18.71 0.00479575
18.91 0.0409065
19.11 0.0197678
19.31 0.0552067
19.51 -0.00136047
19.71 0.0111897
19.91 0.0356352
20.11 0.00796167
20.31 0.018804
20.51 0.0158797
20.71 0.0385131
20.91 0.0154128
21.11 0.0482286
21.31 0.0682101
21.51 0.0398692
21.71 0.0261046
21.91 0.0122828
22.11 0.0101306
22.31 0.00410915
22.51 0.0114741
22.71 0.0278847
22.91 -0.000512953
23.11 0.0274509
23.31 0.0376312
23.51 0.226793
23.71 0.141227
23.91 0.0237806
24.11 0.0274
24.31 0.0207778
24.51 0.0179722
24.71 0.0274852
24.91 0.0306042
25.11 0.0292189
25.31 0.0749614
25.51 0.0464356
25.71 0.007891
25.91 -0.0104263
26.11 0.0355653
26.31 0.0238193
26.51 0.0135132
26.71 0.0140961
26.91 0.00247626
27.11 0.0294011
27.31 0.0286722
27.51 0.0151257
27.71 0.0325539
27.91 0.0408751
28.11 0.0340287
28.31 0.0230993
28.51 0.0351603
28.71 0.157666
28.91 0.0721616
29.11 0.0275447
29.31 0.0414898
29.51 0.0152285
29.71 0.0414311
29.91 0.212858
30.11 2.76449
30.31 0.538901
30.51 0.069688
30.71 0.0627636
30.91 0.0607909
31.11 -0.0133955
31.31 0.000681038
31.51 0.0210801
31.71 0.00472235
31.91 0.0134513
32.11 0.0298508
32.31 -0.0185146
32.51 0.0223656
32.71 0.0259939
32.91 0.0224295
33.11 -0.00686968
33.31 -0.0222707
33.51 0.0186318
33.71 0.00940496
33.91 -0.00791817
34.11 -0.00321327
34.31 0.00712945
34.51 0.012365
34.71 0.313893
34.91 0.387147
35.11 0.0272041
35.31 -0.022324
35.51 0.00698934
35.71 -0.000596572
35.91 0.0380995
36.11 0.247042
36.31 1.5658
36.51 0.59307
36.71 0.0295961
36.91 0.0117743
37.11 0.0126947
37.31 0.106381
37.51 0.723734
37.71 0.212523
37.91 0.023324
38.11 0.000732028
38.31 0.0282414
38.51 0.0978701
38.71 0.10567
38.91 0.0163811
39.11 0.0127742
39.31 0.0290396
39.51 0.0408143
39.71 -0.00161069
39.91 0.0024533
40.11 0.00446989
40.31 -0.012349
40.51 0.00260942
40.71 0.0325043
40.91 0.0428499
41.11 0.0261589
41.31 0.0980253
41.51 0.214046
41.71 0.00386222
41.91 0.0205231
42.11 0.0142521
42.31 0.0108167
42.51 0.0112897
42.71 0.0107201
42.91 0.0261702
43.11 0.00736502
43.31 0.0395407
43.51 0.0139623
43.71 -0.00613163
43.91 -0.012202
44.11 0.00233564
44.31 -0.00884812
44.51 0.00850005
44.71 0.135233
44.91 0.104662
45.11 0.0152978
45.31 0.0237188
45.51 0.00620254
45.71 -0.00325172
45.91 0.0131974
46.11 0.00362456
46.31 0.00749952
46.51 0.000286252
46.71 0.00318808
46.91 0.0175626
47.11 0.0277972
47.31 0.0497896
47.51 0.286395
47.71 0.363499
47.91 0.493242
48.11 4.91508
48.31 3.52171
48.51 0.356459
48.71 0.107091
48.91 0.150714
49.11 0.275098
49.31 0.129568
49.51 0.0224015
49.71 0.0259229
49.91 0.0406807
50.11 0.216587
50.31 0.889563
50.51 0.341437
50.71 0.0281129
50.91 1.02543e-05
51.11 0.00845405
51.31 0.000655261
51.51 0.014667
51.71 0.0778587
51.91 0.190475
52.11 0.148098
52.31 0.0611178
52.51 -0.00812504
52.71 -0.00307587
52.91 0.00347724
53.11 -0.00489596
53.31 0.00916362
53.51 0.0399603
53.71 0.0862637
53.91 0.159316
54.11 0.0438765
54.31 0.0195954
54.51 0.0180238
54.71 -0.0104478
54.91 0.00997755
55.11 0.0168141
55.31 0.0100932
55.51 -0.0100491
55.71 -0.0103139
55.91 0.0077265
56.11 -0.0100181
56.31 -0.00907596
56.51 0.00410966
56.71 0.00447021
56.91 0.0244961
57.11 0.06119
57.31 0.0462107
57.51 0.0453329
57.71 0.127125
57.91 0.439746
58.11 0.34235
58.31 0.0555156
58.51 0.0268228
58.71 0.00670046
58.91 -0.00446587
59.11 -0.000328077
59.31 0.00716204
59.51 0.00402381
59.71 0.0133608
59.91 0.00463341
60.11 -0.00757539
60.31 -0.0119086
60.51 0.0112324
60.71 -0.00120714
60.91 0.00852212
61.11 0.0200911
61.31 0.0132318
61.51 0.0808621
61.71 0.285894
61.91 0.563027
62.11 0.136835
62.31 0.0277528
62.51 0.0894774
62.71 0.140366
62.91 0.0625779
63.11 0.011847
63.31 0.0291501
63.51 0.0172732
63.71 0.0203591
63.91 0.00265791
64.11 -0.00730201
64.31 0.00975572
64.51 0.004247
64.71 0.0407873
64.91 0.09465
65.11 0.0872807
65.31 0.0372969
65.51 0.0426614
65.71 0.0170968
65.91 0.0071752
66.11 0.00359306
66.31 0.00226117
66.51 -0.0106519
66.71 0.00437535
66.91 0.00513537
67.11 0.00189481
67.31 0.0134328
67.51 9.78069e-05
67.71 0.0277701
67.91 0.0512472
68.11 0.0527468
68.31 0.034276
68.51 0.00656888
68.71 0.00726955
68.91 0.00243071
69.11 0.00150383
69.31 0.00833097
69.51 0.00274676
69.71 -0.0087252
69.91 0.0309259
70.11 0.0474764
70.31 0.140418
70.51 0.0372166
70.71 0.0229808
70.91 0.0524597
71.11 0.0985172
71.31 0.156276
71.51 0.1054
71.71 0.0325816
71.91 0.0204861
72.11 -0.00624113
72.31 0.00786725
72.51 0.000402211
72.71 -0.00830033
72.725 -0.0162294