Folder: rapid/data/xrd/xy (part 10)

File: 2019-06-10T22_05_20.195696+00_00_LBL_A5.xy
'Id: "" Comment: "Integrate frame 06132019_dimethyl_ipropyl_05_002.gfrmwith cursor Wedge Cursor #6" Operator: "UC Berkeley" Anode: "Co" Scantype: "TwoTheta" TimePerStep: "480"
20.78 -0.0302513
20.925 -0.0220829
21.07 -0.00361824
21.215 0.00586211
21.36 0.0269707
21.505 0.00511957
21.65 0.0308
21.795 0.0292261
21.94 0.0364324
22.085 0.0204695
22.23 0.0304309
22.375 0.0130023
22.52 0.0130061
22.665 0.0142357
22.81 0.0322571
22.955 0.0121399
23.1 0.00520231
23.245 0.0325215
23.39 0.0300457
23.535 0.0147935
23.68 0.034307
23.825 0.00720063
23.97 0.0291741
24.115 0.0089153
24.26 0.0267407
24.405 0.0346094
24.55 0.0320141
24.695 0.0278114
24.84 0.0190146
24.985 0.0337677
25.13 0.0641415
25.275 0.088104
25.42 0.0963406
25.565 0.0663851
25.71 0.0572026
25.855 0.0953181
26 0.0368335
26.145 0.0594587
26.29 0.0634852
26.435 0.0702352
26.58 0.0216422
26.725 0.0511059
26.87 0.0250818
27.015 0.0446755
27.16 0.0549299
27.305 0.13047
27.45 0.149566
27.595 0.112479
27.74 0.269668
27.885 0.260361
28.03 0.119508
28.175 0.0958787
28.32 0.111173
28.465 0.115112
28.61 0.0816312
28.755 0.12352
28.9 0.243263
29.045 0.251088
29.19 0.221442
29.335 0.222848
29.48 0.128938
29.625 0.0536859
29.77 0.0594895
29.915 0.0417128
30.06 0.0228871
30.205 0.00382899
30.35 0.0772572
30.495 0.0838772
30.64 0.183707
30.785 0.244292
30.93 0.231165
31.075 0.131059
31.22 0.0577359
31.365 0.0222193
31.51 0.0165583
31.655 0.0152991
31.8 0.0173807
31.945 0.0508686
32.09 0.0727249
32.235 0.168416
32.38 0.23708
32.525 0.159604
32.67 0.059292
32.815 0.0233247
32.96 0.0202279
33.105 0.0154262
33.25 0.00071105
33.395 0.00406903
33.54 0.0527121
33.685 0.0828841
33.83 0.0859789
33.975 0.0773392
34.12 0.0917578
34.265 0.108632
34.41 0.0817291
34.555 0.0824137
34.7 0.0946708
34.845 0.0952851
34.99 0.123559
35.135 0.0641248
35.28 0.0675917
35.425 0.102885
35.57 0.159816
35.715 0.109155
35.86 0.0696396
36.005 0.0603219
36.15 0.0535069
36.295 0.0314102
36.44 0.0262358
36.585 0.0378791
36.73 0.0477967
36.875 0.0610097
37.02 0.0667595
37.165 0.0944409
37.31 0.045612
37.455 0.0465143
37.6 0.0188227
37.745 -0.000284081
37.89 -0.00736154
38.035 0.0150248
38.18 0.0046654
38.325 0.00372865
38.47 -0.00396132
38.615 0.0335931
38.76 0.0680221
38.905 0.0920423
39.05 0.116297
39.195 0.029475
39.34 0.0266749
39.485 -0.00100185
39.63 -0.0184666
39.775 -0.0245346
39.92 -0.00393051
40.065 -0.00290218
40.21 0.0111089
40.355 0.00374085
40.5 0.00783553
40.645 -0.0155773
40.79 -0.00574295
40.935 -0.00795851
41.08 0.00678042
41.225 0.0191003
41.37 0.00354762
41.515 0.010172
41.66 0.0223961
41.805 0.00456618
41.95 -0.00306864
42.095 -0.00280506
42.24 -0.0213519
42.385 -0.00274658
42.53 0.0391978
42.675 0.0292634
42.82 0.031066
42.965 0.00731183
43.11 0.0416147
43.255 0.106102
43.4 0.191391
43.545 0.198715
43.69 0.169949
43.835 0.0670104
43.98 0.0570707
44.125 0.0581555
44.27 0.0609359
44.415 0.0604146
44.56 0.0517312
44.705 0.0273657
44.85 -0.00671071
44.995 0.0102695
45.14 0.00789337
45.285 0.0249053
45.43 0.0269751
45.575 0.0414928
45.72 0.0444826
45.865 0.0812551
46.01 0.261317
46.155 0.355389
46.3 0.198869
46.445 0.0897351
46.59 0.0928054
46.735 0.116018
46.88 0.175927
47.025 0.27773
47.17 0.298264
47.315 0.213147
47.46 0.137085
47.605 0.106293
47.75 0.0868196
47.895 0.084674
48.04 0.076813
48.185 0.0538577
48.33 0.0508421
48.475 0.0195089
48.62 0.0251392
48.765 -0.00407394
48.91 -0.00235557
49.055 -0.00305167
49.2 0.0147459
49.345 0.00623804
49.49 -0.00200974
49.635 0.00620918
49.78 -0.0124866
49.925 -0.00930725
50.07 -0.00316955
50.215 -0.00407029
50.36 -0.00364865
50.505 -0.00397795
50.65 0.0186994
50.795 0.0204224
50.94 0.018571
51.085 0.0267246
51.23 0.0244203
51.375 0.0161013
51.52 0.00865488
51.665 -0.00528467
51.81 5.35777e-05
51.955 -0.00678417
52.1 0.000483394
52.245 0.00651764
52.39 -0.0137074
52.535 0.0152849
52.68 0.0260685
52.825 0.0243555
52.97 0.0338374
53.115 0.00411882
53.26 -0.00475783
53.405 -0.0032052
53.55 -0.00500935
53.695 0.00522991
53.84 0.00814888
53.985 0.00293414
54.13 0.0162574
54.275 0.0276119
54.42 0.057122
54.565 0.079238
54.71 0.0801624
54.855 0.0645251
55 0.03883
55.145 0.0358947
55.29 0.0264018
55.435 0.0362894
55.58 0.0469488
55.725 0.0381942
55.87 0.02467
56.015 0.00562592
56.16 -0.00606424
56.305 0.0125171
56.45 0.0126196
56.595 0.0171375
56.74 0.0215931
56.885 0.014881
57.03 0.054878
57.175 0.0429042
57.32 0.0781872
57.465 0.0804849
57.61 0.0615735
57.755 0.0408715
57.9 0.00921475
58.045 0.0182307
58.19 0.0127266
58.335 0.0331213
58.48 0.0363717
58.625 0.0501289
58.77 0.0408124
58.915 0.0285357
59.06 0.0328863
59.205 0.00408015
59.35 0.00230711
59.495 -0.00240967
59.64 -0.00204783
59.785 -0.0023226
59.93 0.002572
60.075 -0.00605627
60.22 0.0141234
60.365 -0.000474246
60.51 0.00851445
60.655 -0.0031853
60.8 0.000260724
60.945 0.027354
61.09 0.00244578
61.235 -0.00195732
61.38 -0.00137631
61.525 0.0107177
61.67 0.0148163
61.815 0.0229096
61.96 0.0227341
62.105 0.00575512
62.25 0.0076747
62.395 0.00532916
62.54 0.00384049
62.685 0.00950911
62.83 0.00302388
62.975 -0.00571277
63.11 -0.0194551

File: 2019-06-10T22_05_20.195696+00_00_LBL_F4.xy
'Id: "" Comment: "Integrate frame 06132019_dimethyl_ipropyl_04_002.gfrmwith cursor Wedge Cursor #4" Operator: "UC Berkeley" Anode: "Co" Scantype: "TwoTheta" TimePerStep: "480"
23.26 -0.0293875
23.39 -0.00977888
23.52 -0.00412119
23.65 0.00224761
23.78 -0.00969128
23.91 0.0102297
24.04 -0.0026815
24.17 0.0236571
24.3 0.0195753
24.43 3.67375e-06
24.56 0.0344596
24.69 0.0442323
24.82 0.0141904
24.95 0.0421188
25.08 0.0535042
25.21 0.0870404
25.34 0.0598031
25.47 0.068699
25.6 0.050125
25.73 0.0571571
25.86 0.0373578
25.99 0.0137522
26.12 0.0345624
26.25 0.0615394
26.38 0.124901
26.51 0.0539699
26.64 -0.00272603
26.77 0.0403998
26.9 0.0271756
27.03 0.0600774
27.16 0.0211041
27.29 0.125383
27.42 0.210841
27.55 0.166528
27.68 0.198659
27.81 0.306944
27.94 0.274393
28.07 0.206899
28.2 0.157782
28.33 0.197811
28.46 0.197745
28.59 0.128801
28.72 0.14436
28.85 0.285922
28.98 0.466182
29.11 0.405798
29.24 0.368041
29.37 0.359466
29.5 0.19546
29.63 0.14659
29.76 0.0796801
29.89 0.0688774
30.02 0.0417507
30.15 0.0327387
30.28 0.0123902
30.41 0.0387849
30.54 0.0704962
30.67 0.116123
30.8 0.177838
30.93 0.154505
31.06 0.146964
31.19 0.0462884
31.32 -0.0144048
31.45 0.00574546
31.58 -0.0155197
31.71 -0.00280363
31.84 0.00336257
31.97 0.00389799
32.1 0.0410886
32.23 0.12954
32.36 0.223837
32.49 0.214589
32.62 0.1097
32.75 0.0644183
32.88 -0.00584981
33.01 -0.0043803
33.14 0.00809224
33.27 0.00847519
33.4 0.0274864
33.53 0.0624724
33.66 0.106374
33.79 0.124169
33.92 0.122406
34.05 0.111045
34.18 0.206869
34.31 0.214237
34.44 0.132129
34.57 0.104552
34.7 0.102034
34.83 0.131812
34.96 0.147666
35.09 0.122315
35.22 0.0346714
35.35 0.0390907
35.48 0.131262
35.61 0.177476
35.74 0.146878
35.87 0.0877345
36 0.082787
36.13 0.0714637
36.26 0.0286081
36.39 0.033233
36.52 0.0378491
36.65 0.0306746
36.78 0.0784404
36.91 0.0917506
37.04 0.0943356
37.17 0.111729
37.3 0.0716433
37.43 0.0595178
37.56 0.0218431
37.69 0.0132868
37.82 -0.00474546
37.95 -0.00721733
38.08 -0.00927865
38.21 -0.00813843
38.34 -0.0166832
38.47 -0.00175359
38.6 0.0206928
38.73 0.046271
38.86 0.0855396
38.99 0.09225
39.12 0.0668245
39.25 0.0406997
39.38 0.00066368
39.51 -0.0140639
39.64 -0.000697293
39.77 -0.0160089
39.9 -0.0083242
40.03 -0.00386949
40.16 0.00423577
40.29 0.00283663
40.42 0.0111252
40.55 0.00554309
40.68 0.00151519
40.81 0.000916175
40.94 -0.00342373
41.07 0.0182722
41.2 0.0195164
41.33 0.0464072
41.46 0.046056
41.59 0.00111816
41.72 0.0140442
41.85 0.0199186
41.98 0.0162156
42.11 0.0139107
42.24 -0.0140407
42.37 0.0027338
42.5 0.00343389
42.63 -0.0134726
42.76 -0.0183825
42.89 0.0111213
43.02 0.00710663
43.15 0.00991457
43.28 0.0578078
43.41 0.148323
43.54 0.18137
43.67 0.210102
43.8 0.165837
43.93 0.103928
44.06 0.0792954
44.19 0.0790034
44.32 0.0879421
44.45 0.0744049
44.58 0.0507562
44.71 0.0403681
44.84 0.00168474
44.97 -0.00371381
45.1 0.00551742
45.23 0.00773327
45.36 -0.00635084
45.49 -0.00225344
45.62 0.0121901
45.75 0.0167008
45.88 0.0680487
46.01 0.267845
46.14 0.444196
46.27 0.338515
46.4 0.166291
46.53 0.111082
46.66 0.117842
46.79 0.139913
46.92 0.208318
47.05 0.315879
47.18 0.378573
47.31 0.287001
47.44 0.174373
47.57 0.130486
47.7 0.181482
47.83 0.197926
47.96 0.154
48.09 0.134083
48.22 0.155479
48.35 0.103281
48.48 0.0429854
48.61 0.0326619
48.74 0.0212798
48.87 -0.0142092
49 0.000586775
49.13 0.0238767
49.26 0.0367923
49.39 0.0254639
49.52 0.00209048
49.65 0.0012399
49.78 0.00707206
49.91 -0.00557447
50.04 -0.0120062
50.17 0.00704557
50.3 -0.000665175
50.43 -0.0105832
50.56 -0.00830594
50.69 -0.0217391
50.82 0.00425008
50.95 0.0235817
51.08 0.0141383
51.21 0.0313918
51.34 -0.000335744
51.47 -0.00078182
51.6 -0.00804289
51.73 -0.0154303
51.86 -0.00997342
51.99 -0.0035151
52.12 0.0179963
52.25 0.013131
52.38 0.0154037
52.51 0.0328454
52.64 0.0299177
52.77 0.0534343
52.9 0.0763273
53.03 0.0522487
53.16 0.0276352
53.29 0.0106903
53.42 -0.00787409
53.55 -0.000338809
53.68 -0.0110417
53.81 -0.000348357
53.94 0.012781
54.07 0.0119805
54.2 0.0334395
54.33 0.0527753
54.46 0.0745692
54.59 0.099741
54.72 0.115116
54.85 0.0934039
54.98 0.067837
55.11 0.0542123
55.24 0.0478083
55.37 0.0522966
55.5 0.0547347
55.63 0.0442192
55.76 0.0263355
55.89 0.0171866
56.02 0.00448998
56.15 0.00729337
56.28 0.00102444
56.41 0.00668453
56.54 0.00426636
56.67 -0.0125725
56.8 -0.0113547
56.93 0.011005
57.06 0.0162908
57.19 0.0266526
57.32 0.0457084
57.45 0.0631868
57.58 0.0610419
57.71 0.0307801
57.84 0.0193192
57.97 0.0159224
58.1 0.0249165
58.23 0.0393296
58.36 0.0449867
58.49 0.0604307
58.62 0.07274
58.75 0.073206
58.88 0.0609749
59.01 0.0513344
59.14 0.0380889
59.27 0.00382537
59.4 0.0108641
59.53 0.00747482
59.66 0.00579067
59.79 0.00556817
59.92 0.00467248
60.05 0.0280094
60.18 0.0175841
60.31 -0.0114089
60.44 -0.019612
60.57 0.00199279
60.7 -0.000951363
60.83 0.0111545
60.96 -0.00749151
61.09 -0.00393441
61.22 0.0105151
61.35 -0.000671135
61.48 -0.0162538
61.57 -0.0204283

File: 2019-06-18T19_59_27.923270+00_00_LBL_A1.xy
'Id: "" Comment: "Integrate frame 20190716_acnh3_nprop_4flph_06_003.gfrmwith cursor Wedge Cursor #4" Operator: "UC Berkeley" Anode: "Co" Scantype: "TwoTheta" TimePerStep: "450"
24.55 -0.0442507
24.72 0.0332935
24.89 0.0914512
25.06 0.0822065
25.23 0.0975755
25.4 0.0184235
25.57 0.121851
25.74 0.123003
25.91 0.04699
26.08 0.114175
26.25 0.40663
26.42 0.123508
26.59 0.113357
26.76 0.0913855
26.93 0.121433
27.1 -0.0156228
27.27 0.0562986
27.44 0.1565
27.61 0.0662297
27.78 0.0550154
27.95 0.0405173
28.12 0.0510774
28.29 -0.00226967
28.46 -0.0183109
28.63 0.076958
28.8 0.0207826
28.97 -0.01571
29.14 0.0553179
29.31 0.0469995
29.48 0.0760249
29.65 0.0327207
29.82 0.10869
29.99 0.330425
30.16 4.72612
30.33 3.63974
30.5 0.18089
30.67 0.0868525
30.84 0.0557484
31.01 -0.0169344
31.18 0.0479986
31.35 0.0141407
31.52 0.0279405
31.69 -0.00245484
31.86 0.103684
32.03 0.0949081
32.2 0.0453198
32.37 0.0259796
32.54 -0.00404753
32.71 0.0535083
32.88 -0.0208069
33.05 0.00987625
33.22 0.0219087
33.39 0.0181284
33.56 0.0203522
33.73 -0.0140183
33.9 0.0158341
34.07 0.00697312
34.24 -0.0073993
34.41 0.0329848
34.58 0.00510193
34.75 0.0669758
34.92 0.0485087
35.09 0.00978313
35.26 0.0102199
35.43 -0.00699408
35.6 -0.0101484
35.77 -0.00653634
35.94 0.0203018
36.11 -0.011498
36.28 0.030935
36.45 0.0276973
36.62 0.00415012
36.79 -0.00261678
36.96 0.0044467
37.13 0.05329
37.3 0.0720633
37.47 0.0354854
37.64 0.00313257
37.81 0.0189256
37.98 0.0360161
38.15 -0.0316542
38.32 0.00783318
38.49 0.00450227
38.66 -0.00849957
38.83 0.00308578
39 -0.0101308
39.17 0.00312796
39.34 0.00462237
39.51 0.00241936
39.68 0.0994001
39.85 0.388078
40.02 3.50285
40.19 2.04216
40.36 0.254242
40.53 0.0361177
40.7 -0.0125989
40.87 0.00517745
41.04 0.0270223
41.21 -0.00804268
41.38 0.0211454
41.55 -0.00605525
41.72 -0.0167326
41.89 -0.0201058
42.06 0.00110707
42.23 0.0162483
42.4 -0.00199933
42.57 0.00551858
42.74 0.00972316
42.91 0.0331647
43.08 0.0084378
43.25 0.0246797
43.42 0.0551643
43.59 0.0175379
43.76 -0.0131367
43.93 -0.0216126
44.1 0.00259058
44.27 0.0198636
44.44 0.0322243
44.61 0.0320282
44.78 -0.029998
44.95 0.0372424
45.12 0.158332
45.29 0.499393
45.46 0.136803
45.63 0.0414993
45.8 0.0284718
45.97 0.0808966
46.14 1.25944
46.31 3.22904
46.48 1.00803
46.65 0.119254
46.82 0.0307592
46.99 0.0323478
47.16 0.0526539
47.33 0.032344
47.5 0.0160886
47.67 0.0349213
47.84 0.0526485
48.01 0.0171495
48.18 0.00398511
48.35 0.015658
48.52 0.0323492
48.69 0.307223
48.86 0.651621
49.03 0.227376
49.2 -0.012799
49.37 -0.0159169
49.54 0.00790388
49.71 0.00402404
49.88 0.0224244
50.05 0.0120079
50.22 0.0105614
50.39 0.0225211
50.56 -0.00464386
50.73 0.0197877
50.9 0.0143711
51.07 0.0180191
51.24 0.0157956
51.41 0.00497509
51.58 0.00927081
51.75 0.0185423
51.92 0.0275561
52.09 0.0177372
52.26 0.0102823
52.43 0.028942
52.6 0.0129363
52.77 0.0930572
52.94 0.579784
53.11 0.866776
53.28 0.379075
53.45 0.0511676
53.62 0.016854
53.79 -0.017985
53.96 0.0310334
54.13 -0.0106471
54.3 -0.0133909
54.47 -0.000654569
54.64 0.00111839
54.81 0.013348
54.98 0.0239498
55.15 -0.0201733
55.32 0.0238059
55.49 0.00434626
55.66 0.012326
55.83 0.0251849
56 0.206896
56.17 1.064
56.34 1.22901
56.51 0.500484
56.68 0.0785328
56.85 0.0114133
57.02 2.02276e-05
57.19 0.00645171
57.36 0.0383571
57.53 0.0341739
57.7 0.00629116
57.87 0.0282716
58.04 -0.0101676
58.21 -0.00321942
58.38 0.0249395
58.55 -0.00484656
58.72 0.0339442
58.89 0.0125864
59.06 0.0237295
59.23 0.0120288
59.4 0.0265127
59.57 0.0191151
59.74 0.0207595
59.91 0.00187045
60.08 0.00649236
60.25 0.0464622
60.42 0.031666
60.59 0.0195602
60.76 0.0273029
60.93 0.0241102
61.1 -0.00129784
61.27 0.0426074
61.44 0.0240179
61.61 0.205815
61.78 0.268562
61.95 0.212387
62.12 0.0180467
62.29 0.00397563
62.46 0.0128119
62.63 0.369116
62.8 0.894647
62.97 0.700967
63.14 0.205833
63.31 0.0513629
63.48 0.0151039
63.65 0.0337524
63.82 -0.00142353
63.99 -0.0235018
64.16 0.00834638
64.33 0.00617683
64.5 -0.00271627
64.67 0.00555142
64.84 0.0166693
65.01 0.0172431
65.18 0.0188141
65.35 0.0404267
65.52 0.00298035
65.69 0.00456189
65.86 0.0153553
66.03 0.00499429
66.2 -0.00308413
66.37 0.0392265
66.54 0.206241
66.71 0.365342
66.88 0.291284
67.05 0.10973
67.22 0.0125872
67.39 0.00772531
67.56 0.00139885
67.73 0.0281058
67.9 0.0194084
68.07 0.0430475
68.24 0.0720892
68.41 0.0739862
68.58 -0.0129202
68.75 0.00633609
68.92 0.0272294
69.09 0.0129519
69.26 -0.00204624
69.43 -0.0114075
69.6 0.00552971
69.77 0.0389931
69.94 0.013995
70.11 0.00840187
70.28 0.00312864
70.45 0.00958798
70.62 0.0214151
70.79 0.0268166
70.96 0.0255718
71.13 0.00559484
71.3 0.0316453
71.47 0.0249256
71.64 0.00355944
71.81 0.0206616
71.98 -0.00205891
72.15 0.00554335
72.32 0.00658789
72.49 -0.00115455
72.66 0.0185958
72.83 0.13023
73 0.226615
73.17 0.154367
73.34 0.0803759
73.51 0.0103021
73.68 0.00597649
73.85 0.0398609
74.02 0.00261255
74.19 0.00468511
74.36 0.00399
74.53 -0.00313254
74.585 -0.0208044

File: 2019-06-18T19_59_27.923270+00_00_LBL_F1.xy
'Id: "" Comment: "Integrate frame 20190716_acnh3_nprop_4flph_07_002.gfrmwith cursor Wedge Cursor #3" Operator: "UC Berkeley" Anode: "Co" Scantype: "TwoTheta" TimePerStep: "450"
13.905 -0.0294597
14.11 0.120455
14.315 0.0979972
14.52 0.442209
14.725 2.79355
14.93 0.734059
15.135 0.05803
15.34 0.103249
15.545 0.0825817
15.75 0.0481494
15.955 0.0807803
16.16 0.0860769
16.365 0.0968483
16.57 0.0219128
16.775 0.0471324
16.98 0.0321692
17.185 0.0494763
17.39 0.0505022
17.595 -0.00509496
17.8 0.0602902
18.005 0.0430276
18.21 0.0292883
18.415 0.026295
18.62 0.0795118
18.825 0.0954203
19.03 0.052806
19.235 0.0668991
19.44 0.0696761
19.645 0.0231401
19.85 0.0497331
20.055 0.042941
20.26 0.0464193
20.465 0.0514004
20.67 0.0711889
20.875 0.00528278
21.08 0.0713664
21.285 0.0504491
21.49 0.0869693
21.695 0.0448201
21.9 0.0147088
22.105 0.082146
22.31 0.0337097
22.515 0.0572735
22.72 0.0164198
22.925 0.0664928
23.13 0.0254314
23.335 0.031401
23.54 0.0458489
23.745 0.0544495
23.95 0.0308012
24.155 0.0504038
24.36 -0.000777614
24.565 -0.00475168
24.77 0.105929
24.975 0.0316038
25.18 0.0455084
25.385 0.0445455
25.59 0.0276505
25.795 0.0421914
26 -0.0172141
26.205 0.111962
26.41 0.0410164
26.615 0.0390789
26.82 0.03043
27.025 0.0373713
27.23 0.0184504
27.435 0.011868
27.64 0.0118179
27.845 0.00213272
28.05 0.00255279
28.255 0.00308282
28.46 0.00691612
28.665 0.0860446
28.87 0.0610165
29.075 0.0324727
29.28 0.0168199
29.485 0.0913208
29.69 0.951413
29.895 0.395891
30.1 1.02478
30.305 3.29214
30.51 0.116251
30.715 0.0658772
30.92 0.0870718
31.125 0.0303716
31.33 0.0188097
31.535 0.0107641
31.74 0.0205642
31.945 0.0430954
32.15 0.0147249
32.355 0.0442606
32.56 0.00560069
32.765 -0.00453379
32.97 0.059376
33.175 -0.0132181
33.38 0.0484685
33.585 0.0397215
33.79 0.0192704
33.995 0.0169485
34.2 0.0033848
34.405 0.0222697
34.61 0.00266309
34.815 0.0385366
35.02 0.0183439
35.225 0.0145318
35.43 0.00813732
35.635 0.0274761
35.84 0.0188729
36.045 0.045236
36.25 0.0278653
36.455 0.00964998
36.66 0.0215024
36.865 -0.00561023
37.07 0.0210035
37.275 0.0283512
37.48 0.0192443
37.685 0.0106969
37.89 0.0161399
38.095 0.00528222
38.3 0.0116064
38.505 0.0229439
38.71 0.0128367
38.915 0.00675285
39.12 0.0484376
39.325 0.0204918
39.53 0.034827
39.735 0.180623
39.94 1.8548
40.145 3.52454
40.35 0.35859
40.555 0.0578897
40.76 0.0429064
40.965 0.0239598
41.17 -0.0141316
41.375 0.012307
41.58 0.0160236
41.785 0.0457045
41.99 0.0268694
42.195 0.0214523
42.4 0.00358658
42.605 0.0362943
42.81 0.00814836
43.015 0.0455753
43.22 0.00273947
43.425 0.000178062
43.63 0.0166257
43.835 0.0372284
44.04 -0.00730619
44.245 0.00751625
44.45 0.0292939
44.655 0.0374682
44.86 0.170405
45.065 1.78237
45.27 4.42511
45.475 1.17378
45.68 0.0845324
45.885 0.0350212
46.09 0.258896
46.295 0.783121
46.5 0.215063
46.705 0.0164601
46.91 0.0184146
47.115 -0.0129313
47.32 -0.0141201
47.525 0.011981
47.73 0.0381126
47.935 0.0140303
48.14 0.0163773
48.345 -0.0144038
48.55 0.0048902
48.755 0.119883
48.96 0.195735
49.165 0.0290878
49.37 0.0109072
49.575 0.0122939
49.78 -0.00564226
49.985 0.00163605
50.19 -0.00753893
50.395 -0.00458091
50.6 -0.00150344
50.805 -0.00243262
51.01 0.0162613
51.215 0.0294615
51.42 0.0161913
51.625 0.00432149
51.83 -0.00472144
52.035 -0.014477
52.24 0.0102264
52.445 0.0241513
52.65 0.081549
52.855 0.522948
53.06 1.55127
53.265 0.967743
53.47 0.101035
53.675 0.0173357
53.88 0.00261985
54.085 0.00403619
54.29 0.0194426
54.495 -0.0144904
54.7 -0.000562013
54.905 0.014971
55.11 -0.00999559
55.315 -0.0193812
55.52 -0.00351072
55.725 -0.018062
55.93 0.0669921
56.135 0.215388
56.34 0.518495
56.545 0.186141
56.75 0.0104529
56.955 0.0235632
57.16 -0.0134835
57.365 0.0188664
57.57 -0.00848967
57.775 0.0189793
57.98 -0.00718846
58.185 -0.0104307
58.39 -0.00138181
58.595 0.0119205
58.8 -0.00138487
59.005 0.0215128
59.21 0.00984223
59.415 0.0123046
59.62 -0.00514341
59.825 0.00980103
60.03 0.015981
60.235 0.00623967
60.44 0.00789424
60.645 -0.00050929
60.85 -0.00535986
61.055 0.021685
61.26 0.149951
61.465 0.760239
61.67 1.28532
61.875 1.51915
62.08 0.307518
62.285 0.0323471
62.49 0.0377498
62.695 0.172848
62.9 0.40068
63.105 0.186006
63.31 0.00489877
63.515 0.00526503
63.72 0.00253582
63.925 0.0261706
64.13 -0.00474735
64.335 -0.00238229
64.54 0.00801739
64.745 -0.00774152
64.95 0.041286
65.155 -0.00888365
65.36 0.0329909
65.565 0.00138651
65.77 0.00588308
65.975 0.0235927
66.18 0.0268421
66.385 0.107237
66.59 0.280447
66.795 0.421033
67 0.241888
67.205 0.0332393
67.41 -0.00531167
67.615 0.00548283
67.82 0.0210653
68.025 0.0513621
68.23 0.168439
68.435 0.185088
68.64 0.0490673
68.845 -0.00358694
69.05 0.0167453
69.255 0.0115987
69.46 0.023329
69.665 0.0014936
69.87 -0.00656041
70.075 0.00436607
70.28 0.0263588
70.485 0.0225867
70.69 -0.0140211
70.895 -0.00649799
71.1 0.01748
71.305 -0.00822772
71.51 0.0136316
71.715 0.0178703
71.92 -0.0106316
72.125 -0.00458129
72.33 0.00959869
72.535 0.0218732
72.74 0.0428712
72.945 0.138524
73.15 0.178289
73.355 0.113149
73.56 0.0417403
73.765 0.0159715
73.97 0.0222473
74.055 -0.0162051

File: 2019-06-18T20_49_29.598214+00_00_LBL_A1.xy
'Id: "" Comment: "Integrate frame neopen_trifluo_02_001.gfrmwith cursor Wedge Cursor #2" Operator: "UC Berkeley" Anode: "Co" Scantype: "TwoTheta" TimePerStep: "700"
13.595 -0.0230118
13.79 -0.00186823
13.985 0.0523182
14.18 0.0453246
14.375 0.0235446
14.57 0.0846972
14.765 0.091976
14.96 0.0456856
15.155 -0.0232536
15.35 0.0163252
15.545 0.00929629
15.74 0.0166964
15.935 0.0402296
16.13 0.0363762
16.325 0.0306967
16.52 0.00579744
16.715 0.0212987
16.91 0.0507477
17.105 0.0485076
17.3 0.0311579
17.495 0.0169369
17.69 0.0335412
17.885 0.0430209
18.08 0.0487762
18.275 0.0135254
18.47 0.010489
18.665 0.000432553
18.86 0.0108347
19.055 0.0457028
19.25 0.0534238
19.445 0.0605116
19.64 0.0442391
19.835 0.0259015
20.03 0.0403703
20.225 0.0396619
20.42 0.0278632
20.615 0.0279402
20.81 0.081173
21.005 0.056332
21.2 0.0296831
21.395 -0.00308542
21.59 0.0444145
21.785 -0.00476471
21.98 0.0582027
22.175 0.0342208
22.37 0.00775537
22.565 0.03402
22.76 0.0175672
22.955 0.035335
23.15 -0.00183988
23.345 0.0234156
23.54 0.0338265
23.735 0.0233853
23.93 0.00535714
24.125 0.00745921
24.32 0.026138
24.515 -0.000973777
24.71 0.0172137
24.905 0.0438455
25.1 0.015244
25.295 0.0246394
25.49 -0.0201012
25.685 0.0106735
25.88 0.0149895
26.075 0.0269699
26.27 0.0812449
26.465 0.00785146
26.66 0.0478223
26.855 0.0621103
27.05 0.189961
27.245 1.18846
27.44 0.118501
27.635 0.051452
27.83 0.061649
28.025 0.0503491
28.22 0.0384703
28.415 -0.000965901
28.61 0.0291432
28.805 0.0699141
29 0.204805
29.195 0.133985
29.39 0.0945784
29.585 0.153036
29.78 0.134909
29.975 0.461155
30.17 2.71149
30.365 0.360569
30.56 0.0824616
30.755 0.0607318
30.95 0.0514741
31.145 0.0553447
31.34 0.0907274
31.535 0.0829511
31.73 0.0526107
31.925 0.017259
32.12 -0.0217661
32.315 0.00858759
32.51 0.00294759
32.705 0.0710746
32.9 0.159418
33.095 0.151783
33.29 0.112669
33.485 0.0405
33.68 0.0128554
33.875 0.0344934
34.07 0.0690632
34.265 0.194797
34.46 1.24175
34.655 0.775116
34.85 0.112469
35.045 0.0643439
35.24 0.0721097
35.435 0.0425721
35.63 0.0602879
35.825 0.0568294
36.02 0.105418
36.215 0.132654
36.41 0.0613501
36.605 0.0145187
36.8 -0.00442447
36.995 0.00275206
37.19 -0.00159746
37.385 0.00648459
37.58 0.0100698
37.775 -0.00563013
37.97 0.0207742
38.165 0.018108
38.36 0.0132845
38.555 0.000962246
38.75 -0.0028273
38.945 -0.00851237
39.14 -0.00472609
39.335 0.0183741
39.53 0.011096
39.725 0.0688103
39.92 0.393701
40.115 0.312544
40.31 0.0486982
40.505 0.0139676
40.7 0.00218905
40.895 -0.00653418
41.09 0.0215057
41.285 0.00808382
41.48 0.00236195
41.675 0.00677535
41.87 0.035208
42.065 0.00966005
42.26 0.00128443
42.455 0.0183417
42.65 -0.00506257
42.845 0.00362465
43.04 0.0157769
43.235 0.00597004
43.43 -0.00618407
43.625 0.00224387
43.82 0.0169494
44.015 0.0284741
44.21 0.0280241
44.405 0.0242218
44.6 0.0189188
44.795 0.0259877
44.99 0.0914815
45.185 0.299006
45.38 0.115784
45.575 0.0563902
45.77 0.0902339
45.965 0.609326
46.16 2.80909
46.355 1.60349
46.55 0.220679
46.745 0.0286773
46.94 0.0175049
47.135 0.0151057
47.33 0.00911529
47.525 0.00627305
47.72 -0.00648012
47.915 0.00421447
48.11 0.0242327
48.305 0.0276873
48.5 0.133613
48.695 0.595072
48.89 0.419544
49.085 0.0795728
49.28 -0.00661514
49.475 0.00136769
49.67 -0.0183395
49.865 -0.00343268
50.06 0.0135862
50.255 -0.0100725
50.45 0.000159486
50.645 0.0155274
50.84 -0.000910433
51.035 0.0168943
51.23 0.0185371
51.425 -0.0106721
51.62 0.00500171
51.815 -0.000426971
52.01 0.00224356
52.205 0.004002
52.4 0.000484356
52.595 0.0202565
52.79 0.116631
52.985 0.147497
53.18 0.0750346
53.375 0.0131016
53.57 0.00483301
53.765 0.00327326
53.96 0.00898242
54.155 0.0184148
54.35 0.0926942
54.545 0.119773
54.74 0.045423
54.935 0.0174638
55.13 0.00750284
55.325 0.0107449
55.52 0.011819
55.715 0.0371974
55.91 0.123019
56.105 0.404247
56.3 0.337125
56.495 0.103251
56.69 0.0197879
56.885 0.018114
57.08 -0.00664224
57.275 0.0214003
57.47 0.00201884
57.665 0.0359451
57.86 0.0322758
58.055 0.048155
58.25 0.0428645
58.445 0.0206919
58.64 0.0784557
58.835 0.299171
59.03 0.452919
59.225 0.171653
59.42 0.037841
59.615 0.0225338
59.81 0.00831785
60.005 0.0400656
60.2 0.0499007
60.395 0.0307446
60.59 0.010565
60.785 -0.010291
60.98 0.0123805
61.175 0.0282349
61.37 0.109643
61.565 0.153548
61.76 0.184873
61.955 0.068306
62.15 0.00675719
62.345 0.015418
62.54 0.0479618
62.735 0.109124
62.93 0.0992449
63.125 0.0330241
63.32 0.021499
63.515 -0.0152537
63.71 0.0104092
63.905 0.00864859
64.1 0.00812929
64.295 0.00670619
64.49 0.0146257
64.685 -0.00516353
64.88 0.0182134
65.075 0.010817
65.27 0.00576243
65.465 0.0262625
65.66 0.0291436
65.855 0.0155102
66.05 0.0256906
66.245 0.0744518
66.44 0.225156
66.635 0.264092
66.83 0.237419
67.025 0.123333
67.22 0.109444
67.415 0.16741
67.61 0.0562082
67.805 0.0155731
68 0.0128637
68.195 -0.00213688
68.39 -0.000997776
68.585 0.0022436
68.78 0.00265327
68.975 0.00140311
69.17 0.00760723
69.365 0.0125255
69.56 -0.0014936
69.755 -0.00203197
69.95 0.000914406
70.145 -0.00286083
70.34 -0.0048676
70.535 -0.000521222
70.73 -0.0012927
70.925 0.00615867
71.12 0.00515404
71.315 -0.0111736
71.345 -0.0147218