Folder: rapid/data/xrd/xy (part 18)

File: 2019-09-24T15_41_07.555823+00_00_LBL_B7.xy
'Id: "" Comment: "Integrate frame butane14dia_02_001.gfrmwith cursor Wedge Cursor #2" Operator: "UC Berkeley" Anode: "Co" Scantype: "TwoTheta" TimePerStep: "600"
13.83 -0.0251363
14.025 0.0533773
14.22 0.0423468
14.415 0.21562
14.61 0.162749
14.805 0.0104284
15 0.049748
15.195 0.0581218
15.39 0.0175743
15.585 0.0535466
15.78 0.0173688
15.975 0.0472799
16.17 0.0439448
16.365 0.0273091
16.56 0.0659373
16.755 0.0311282
16.95 0.0614863
17.145 0.546459
17.34 0.260203
17.535 0.0498308
17.73 0.00922396
17.925 -0.0245535
18.12 0.0187326
18.315 0.0663814
18.51 -0.0136974
18.705 0.00875577
18.9 -0.0243809
19.095 0.0435382
19.29 0.0213541
19.485 0.0204824
19.68 0.0339679
19.875 0.041393
20.07 0.0305532
20.265 -0.0180409
20.46 0.0296387
20.655 0.0751203
20.85 0.226613
21.045 0.378881
21.24 0.090074
21.435 0.0203815
21.63 0.0178544
21.825 0.0106245
22.02 0.0631974
22.215 0.0388215
22.41 0.0537105
22.605 0.0283634
22.8 0.0280357
22.995 -0.00632885
23.19 0.00639585
23.385 0.0368915
23.58 0.0955362
23.775 0.121117
23.97 0.0249358
24.165 0.162492
24.36 0.0290235
24.555 0.0145392
24.75 0.00552769
24.945 0.583888
25.14 0.125645
25.335 0.056088
25.53 0.0195066
25.725 0.0256603
25.92 0.134756
26.115 1.17407
26.31 0.335539
26.505 0.4353
26.7 0.0221353
26.895 -0.0116284
27.09 0.0225194
27.285 0.0612545
27.48 0.00428186
27.675 0.00876826
27.87 0.0867486
28.065 0.391562
28.26 0.215037
28.455 2.72538
28.65 0.90029
28.845 0.146318
29.04 0.244705
29.235 0.049522
29.43 0.030392
29.625 0.0218166
29.82 0.0400741
30.015 0.241549
30.21 0.138554
30.405 0.227879
30.6 0.356755
30.795 0.0741685
30.99 0.0101254
31.185 0.0241532
31.38 0.00432775
31.575 0.0321668
31.77 0.0166616
31.965 0.00482093
32.16 0.00743313
32.355 0.114153
32.55 0.517576
32.745 0.104839
32.94 0.0716178
33.135 0.00958522
33.33 0.0755921
33.525 0.00823848
33.72 -0.00624687
33.915 0.00979465
34.11 0.0624426
34.305 0.0785867
34.5 0.170447
34.695 1.44915
34.89 3.45816
35.085 0.147278
35.28 0.0205767
35.475 0.0300207
35.67 0.033178
35.865 -0.00499261
36.06 0.0191308
36.255 0.079623
36.45 0.0706552
36.645 0.498493
36.84 2.37972
37.035 0.308071
37.23 0.0888795
37.425 0.234842
37.62 0.121182
37.815 0.0248939
38.01 0.0121589
38.205 0.00219284
38.4 0.00121328
38.595 0.0176261
38.79 0.00903857
38.985 0.00280896
39.18 -0.00941613
39.375 0.0190954
39.57 0.242943
39.765 0.212116
39.96 0.0092868
40.155 -0.00661373
40.35 0.0658854
40.545 0.0996021
40.74 0.0380107
40.935 0.0276442
41.13 -0.00470521
41.325 0.00591386
41.52 0.177458
41.715 0.264016
41.91 -0.0079866
42.105 0.157491
42.3 0.640503
42.495 0.132718
42.69 0.0187809
42.885 0.0208453
43.08 -0.00668714
43.275 0.0192995
43.47 0.00938927
43.665 0.0238404
43.86 0.0207924
44.055 0.017147
44.25 0.0163342
44.445 0.23713
44.64 0.198738
44.835 0.181044
45.03 0.166349
45.225 0.12548
45.42 0.173165
45.615 0.323622
45.81 0.170546
46.005 0.239873
46.2 0.303299
46.395 0.0548119
46.59 -0.015097
46.785 -0.0105136
46.98 -0.0104327
47.175 -0.0152644
47.37 0.0361442
47.565 0.184288
47.76 0.12398
47.955 0.0496747
48.15 0.0406166
48.345 -0.0123024
48.54 -0.0163694
48.735 0.0307772
48.93 0.064653
49.125 0.0650606
49.32 0.385708
49.515 0.328934
49.71 0.097545
49.905 0.0239595
50.1 0.0294069
50.295 0.169965
50.49 0.464155
50.685 0.104176
50.88 0.00863417
51.075 -0.00608162
51.27 -6.74988e-06
51.465 -0.00572703
51.66 -0.0064669
51.855 0.0444083
52.05 0.0181998
52.245 -0.0138521
52.44 -0.0146633
52.635 0.0119934
52.83 0.0188983
53.025 0.052982
53.22 0.290336
53.415 1.2642
53.61 0.408047
53.805 0.142574
54 0.125433
54.195 0.0852039
54.39 0.140002
54.585 0.0439127
54.78 -0.00725153
54.975 0.0155894
55.17 0.203131
55.365 0.197985
55.56 0.0248081
55.755 -0.00314484
55.95 0.00969995
56.145 0.0446299
56.34 0.215889
56.535 0.443029
56.73 0.181941
56.925 0.0644833
57.12 0.0125984
57.315 -0.00380175
57.51 0.00489996
57.705 0.0231253
57.9 0.0589607
58.095 0.0900035
58.29 0.0783794
58.485 0.0372054
58.68 0.023484
58.875 0.0947998
59.07 0.168607
59.265 0.0722008
59.46 0.0690518
59.655 0.0102481
59.85 -0.000912683
60.045 0.0160758
60.24 -0.0137078
60.435 0.0250049
60.63 0.0158697
60.825 0.0681002
61.02 0.0770962
61.215 0.00152737
61.41 -0.00364503
61.605 0.000283781
61.8 0.035295
61.995 0.0516055
62.19 0.0810099
62.385 0.043364
62.58 0.025289
62.775 0.0187662
62.97 -0.0118115
63.165 0.00386795
63.36 0.0108432
63.555 0.00230395
63.75 0.0412614
63.945 0.0237212
64.14 -0.0157087
64.335 0.0353041
64.53 0.0431867
64.725 0.029675
64.92 0.0111002
65.115 -0.010711
65.31 -0.00400698
65.505 -0.00819262
65.7 0.0222128
65.895 0.0316233
66.09 0.00529551
66.285 0.0441041
66.48 0.112424
66.675 0.20621
66.87 0.00121912
67.065 -0.00112809
67.26 -0.00281394
67.455 0.00144755
67.65 -2.60527e-05
67.845 0.0220753
68.04 0.0553074
68.235 0.154917
68.43 0.229999
68.625 0.127835
68.82 0.0243336
69.015 0.00570597
69.21 0.00209725
69.405 0.0109343
69.6 0.224845
69.795 0.0472812
69.99 0.0361733
70.185 0.126866
70.38 0.070937
70.575 0.0595538
70.77 0.14271
70.965 0.155875
71.16 0.072559
71.355 -0.00203771
71.47 -0.0157735

File: 2019-09-30T17_18_05.146721+00_00_LBL_F7.xy
'Id: "" Comment: "Integrate frame diethylpropane13dia_02_001.gfrmwith cursor Wedge Cursor #3" Operator: "UC Berkeley" Anode: "Co" Scantype: "TwoTheta" TimePerStep: "600"
4.03 -0.0231597
4.23 0.111901
4.43 0.0383771
4.63 0.0666577
4.83 0.0757507
5.03 0.0116527
5.23 0.101692
5.43 0.0422636
5.63 0.104192
5.83 0.0330132
6.03 0.0397287
6.23 0.0718055
6.43 0.0675431
6.63 0.0128501
6.83 0.0599109
7.03 0.0820894
7.23 0.0367289
7.43 0.101826
7.63 0.0844781
7.83 -0.00063064
8.03 0.0532889
8.23 0.00395931
8.43 0.0707642
8.63 0.000135866
8.83 0.0283624
9.03 0.000748823
9.23 0.00538029
9.43 0.0668093
9.63 0.0677736
9.83 0.139838
10.03 0.0860232
10.23 0.0330204
10.43 0.173627
10.63 0.0760218
10.83 0.00205012
11.03 0.0164516
11.23 0.0173503
11.43 0.0503525
11.63 0.0555662
11.83 0.113631
12.03 0.10858
12.23 0.0294421
12.43 0.0434072
12.63 0.0756434
12.83 0.0409474
13.03 0.0389375
13.23 0.584744
13.43 0.048495
13.63 0.0261346
13.83 0.0422237
14.03 0.146444
14.23 0.115891
14.43 -0.00106749
14.63 0.0252213
14.83 0.0252703
15.03 0.00102284
15.23 0.0208556
15.43 -0.0234554
15.63 0.0190418
15.83 -0.002856
16.03 0.0432279
16.23 0.0211332
16.43 0.0736815
16.63 0.149268
16.83 0.251286
17.03 0.0741338
17.23 0.0179939
17.43 0.0454857
17.63 -0.00555008
17.83 0.00350453
18.03 0.0633055
18.23 0.0611788
18.43 0.0533759
18.63 0.0156833
18.83 0.0376928
19.03 0.0332964
19.23 0.322266
19.43 0.0753588
19.63 0.279366
19.83 0.0630468
20.03 0.0562488
20.23 0.033811
20.43 0.0654505
20.63 0.285706
20.83 0.0823483
21.03 0.194518
21.23 0.0475822
21.43 0.0298169
21.63 0.0574468
21.83 -0.00587406
22.03 0.029349
22.23 -0.00540323
22.43 -0.0140814
22.63 0.0548954
22.83 0.0932023
23.03 0.0600699
23.23 0.0490556
23.43 0.0404422
23.63 0.011046
23.83 0.156019
24.03 0.0518486
24.23 -0.0112245
24.43 0.0205386
24.63 0.0162084
24.83 0.0509094
25.03 -0.0306856
25.23 -0.00406404
25.43 -0.0182472
25.63 -0.00943162
25.83 0.0693004
26.03 -0.00845341
26.23 0.0210455
26.43 -0.0176203
26.63 0.128148
26.83 0.158364
27.03 0.311455
27.23 0.0263128
27.43 -0.010834
27.63 0.215856
27.83 0.257413
28.03 0.0332452
28.23 0.0562341
28.43 -0.0133438
28.63 0.09622
28.83 0.258594
29.03 0.0340618
29.23 0.0493717
29.43 0.386915
29.63 0.757949
29.83 0.170571
30.03 0.145466
30.23 0.165419
30.43 0.25447
30.63 0.334945
30.83 0.0562046
31.03 -0.0162672
31.23 -0.00569374
31.43 0.0576988
31.63 0.469808
31.83 0.724266
32.03 0.118991
32.23 0.0742246
32.43 0.191145
32.63 0.333741
32.83 1.18928
33.03 0.32334
33.23 0.0886812
33.43 -0.000996604
33.63 0.0123187
33.83 0.238151
34.03 0.0622164
34.23 0.0343724
34.43 0.0926437
34.63 0.0141157
34.83 0.0528072
35.03 0.126829
35.23 0.364124
35.43 0.499678
35.63 0.0963095
35.83 0.106595
36.03 0.120739
36.23 0.0514955
36.43 0.00589818
36.63 0.13287
36.83 0.836039
37.03 0.51494
37.23 0.224371
37.43 0.095503
37.63 0.061068
37.83 0.06598
38.03 0.00906066
38.23 0.106512
38.43 0.0720244
38.63 0.0204839
38.83 0.228863
39.03 0.449757
39.23 0.0725895
39.43 0.0151438
39.63 0.00493316
39.83 0.0179949
40.03 0.030764
40.23 0.081564
40.43 0.0036015
40.63 0.0109793
40.83 0.0289618
41.03 0.0738121
41.23 0.0990189
41.43 0.00719958
41.63 -0.018061
41.83 0.032367
42.03 0.0877232
42.23 -0.00541295
42.43 0.0185485
42.63 0.135823
42.83 0.241212
43.03 0.0690139
43.23 0.0715127
43.43 0.152669
43.63 0.0407437
43.83 0.0370775
44.03 -0.01989
44.23 -0.00229195
44.43 0.0469889
44.63 0.00631055
44.83 0.0265952
45.03 -0.00705782
45.23 0.0305988
45.43 0.161541
45.63 0.31535
45.83 0.124501
46.03 0.0219794
46.23 0.128028
46.43 0.2429
46.63 0.186869
46.83 0.0446406
47.03 0.115682
47.23 0.163442
47.43 0.0278456
47.63 0.0350683
47.83 0.0494562
48.03 0.118814
48.23 0.238659
48.43 0.150359
48.63 0.100031
48.83 0.177418
49.03 0.049047
49.23 0.0359957
49.43 0.0793533
49.63 0.141465
49.83 0.0650485
50.03 0.01433
50.23 0.0101522
50.43 0.0322867
50.63 0.0172638
50.83 0.153804
51.03 0.155563
51.23 0.0568234
51.43 0.0679082
51.63 0.0703076
51.83 0.0809676
52.03 0.0822817
52.23 0.0254676
52.43 -0.0069836
52.63 0.0367897
52.83 0.0751997
53.03 0.117213
53.23 0.137048
53.43 0.0684091
53.63 0.065545
53.83 0.0614456
54.03 0.0481457
54.23 -0.0169087
54.43 -0.00463103
54.63 0.0176695
54.83 0.00928696
55.03 0.0163182
55.23 0.0441637
55.43 -0.00898819
55.63 -0.00693812
55.83 0.00546482
56.03 0.0200512
56.23 -0.00493864
56.43 0.0500964
56.63 0.0159417
56.83 0.04649
57.03 0.076825
57.23 0.111225
57.43 0.198675
57.63 0.14473
57.83 -0.00735433
58.03 0.00922157
58.23 0.0215795
58.43 0.0433697
58.63 0.053816
58.83 0.0648354
59.03 0.0913557
59.23 0.0175781
59.43 -0.0133341
59.63 -0.0139354
59.83 -0.00395873
60.03 -0.00753646
60.23 -0.00545349
60.43 0.0347787
60.63 0.0555958
60.83 0.038295
61.03 0.0437037
61.23 0.00988836
61.43 0.0214327
61.63 0.00796328
61.83 -0.0103588
62.03 0.000335951
62.23 -0.00905954
62.43 0.0120345
62.63 0.0125102
62.83 0.026137
63.03 0.0127167
63.23 -0.00530022
63.43 0.00218837
63.63 0.00333307
63.795 -0.0189373

File: 2019-09-30T17_18_05.146721+00_00_LBL_G4.xy
'Id: "" Comment: "Integrate frame diethylpropane13dia_01_001.gfrmwith cursor Wedge Cursor #2" Operator: "UC Berkeley" Anode: "Co" Scantype: "TwoTheta" TimePerStep: "600"
4.045 -0.0238028
4.245 0.0790411
4.445 0.103637
4.645 0.0934177
4.845 0.0723598
5.045 0.0475846
5.245 0.0479693
5.445 0.0444153
5.645 0.0400139
5.845 0.0515203
6.045 0.0768785
6.245 0.0971944
6.445 0.0707943
6.645 0.0385351
6.845 0.0666943
7.045 0.0557866
7.245 0.0752129
7.445 0.029577
7.645 0.0500191
7.845 0.0364536
8.045 0.0367703
8.245 0.0389255
8.445 0.0201747
8.645 0.0888546
8.845 0.0239176
9.045 0.0340223
9.245 0.0185224
9.445 0.00770809
9.645 0.0398168
9.845 0.374892
10.045 0.00291142
10.245 0.0431541
10.445 0.39886
10.645 0.0206855
10.845 0.00767051
11.045 0.00127697
11.245 0.0598877
11.445 0.0472324
11.645 0.00930777
11.845 0.0960052
12.045 0.0995658
12.245 0.0353108
12.445 0.0292201
12.645 0.0313153
12.845 0.0351683
13.045 0.0196596
13.245 0.0779817
13.445 0.0458692
13.645 0.0189615
13.845 0.0323446
14.045 0.113223
14.245 0.00241654
14.445 -0.0165265
14.645 -0.0174925
14.845 2.7914e-06
15.045 0.0278801
15.245 -0.00277151
15.445 0.0256749
15.645 -0.00662745
15.845 0.0394274
16.045 -0.00368645
16.245 -0.0223201
16.445 0.0146847
16.645 0.10848
16.845 0.0646196
17.045 0.0518193
17.245 0.00667366
17.445 0.0414408
17.645 0.0403043
17.845 -0.00740268
18.045 0.042656
18.245 0.0533923
18.445 0.0768396
18.645 0.0272878
18.845 0.0128355
19.045 0.0453688
19.245 0.0819532
19.445 0.0104763
19.645 0.135028
19.845 0.0395585
20.045 -0.00207906
20.245 0.0295057
20.445 0.000933053
20.645 0.108413
20.845 -0.0108315
21.045 0.0630589
21.245 -0.00828686
21.445 0.0347075
21.645 0.000185884
21.845 0.00869448
22.045 0.00269383
22.245 0.00580934
22.445 0.0108125
22.645 0.0248069
22.845 0.0735164
23.045 0.096477
23.245 0.0180252
23.445 0.00204104
23.645 0.0410095
23.845 0.0731149
24.045 0.00216327
24.245 -0.00870335
24.445 -0.0126024
24.645 0.0418819
24.845 0.14696
25.045 0.00148289
25.245 -0.00299924
25.445 -0.00420104
25.645 -0.00099168
25.845 0.0220043
26.045 0.00160268
26.245 0.0221982
26.445 -0.0143095
26.645 0.170303
26.845 0.152414
27.045 0.158014
27.245 0.00497614
27.445 0.0659976
27.645 0.123647
27.845 0.111033
28.045 0.023556
28.245 0.0635931
28.445 -0.00244706
28.645 0.121862
28.845 0.417197
29.045 0.0451342
29.245 0.017481
29.445 0.264315
29.645 0.604795
29.845 0.184016
30.045 0.0914022
30.245 0.158515
30.445 0.189634
30.645 0.12982
30.845 0.00902737
31.045 -0.0125359
31.245 -0.00670459
31.445 0.0312424
31.645 0.242457
31.845 0.600296
32.045 0.109544
32.245 0.0486203
32.445 0.131971
32.645 0.253754
32.845 0.253504
33.045 0.0765824
33.245 0.0307964
33.445 -0.0130118
33.645 0.0147349
33.845 0.0917544
34.045 0.0191859
34.245 0.0318424
34.445 0.0586431
34.645 0.0600625
34.845 0.0625659
35.045 0.137892
35.245 0.201218
35.445 0.396157
35.645 0.11287
35.845 0.0488677
36.045 0.0768927
36.245 -0.000108213
36.445 0.0203443
36.645 0.116139
36.845 0.74122
37.045 0.227813
37.245 0.0616281
37.445 0.0553676
37.645 0.0449736
37.845 0.0609974
38.045 0.0268921
38.245 0.0310723
38.445 -0.0137494
38.645 0.00801953
38.845 0.0985869
39.045 0.145374
39.245 -0.00163237
39.445 0.000571986
39.645 0.014931
39.845 0.00771784
40.045 0.0294922
40.245 0.0367297
40.445 0.0776839
40.645 0.0685207
40.845 0.032346
41.045 0.0927528
41.245 0.0588518
41.445 0.0160478
41.645 -0.0114812
41.845 0.0119018
42.045 0.00358887
42.245 -0.0109436
42.445 0.0213163
42.645 0.0966387
42.845 0.0950089
43.045 0.0372771
43.245 0.0534234
43.445 0.176649
43.645 0.0407972
43.845 0.013511
44.045 0.0307182
44.245 -0.0172542
44.445 0.00906917
44.645 -0.0136774
44.845 -0.00872006
45.045 -0.0126119
45.245 0.036832
45.445 0.13349
45.645 0.264949
45.845 0.135228
46.045 0.037242
46.245 0.0392438
46.445 0.123352
46.645 0.0821187
46.845 0.0136018
47.045 0.0487564
47.245 0.0813696
47.445 -0.00325702
47.645 -0.012159
47.845 0.0537132
48.045 0.530811
48.245 0.337599
48.445 0.0801006
48.645 0.0400942
48.845 0.0211253
49.045 0.0441985
49.245 0.0154999
49.445 0.0489452
49.645 0.0325737
49.845 0.0353245
50.045 -0.00403643
50.245 0.0065328
50.445 0.0212965
50.645 0.0155186
50.845 0.0865488
51.045 0.117694
51.245 0.0438093
51.445 0.0765333
51.645 0.0615227
51.845 0.0263997
52.045 0.0416367
52.245 0.0549702
52.445 0.00607239
52.645 0.0160315
52.845 0.0365447
53.045 0.0660612
53.245 0.0676568
53.445 0.0202313
53.645 0.0465527
53.845 0.0416708
54.045 0.0363007
54.245 0.0448632
54.445 0.000898693
54.645 0.032944
54.845 0.0581533
55.045 0.0303034
55.245 0.0325749
55.445 0.00307642
55.645 -0.0175107
55.845 -0.0149307
56.045 -0.00773881
56.245 0.0182979
56.445 7.20604e-05
56.645 0.0373168
56.845 0.11973
57.045 0.136645
57.245 0.131161
57.445 0.0344064
57.645 0.0251851
57.845 0.0187694
58.045 0.00393738
58.245 -0.00846739
58.445 0.0281735
58.645 0.0695746
58.845 0.137301
59.045 0.0785495
59.245 0.0381746
59.445 0.00512339
59.645 -0.00572276
59.845 -0.0103163
60.045 0.0244966
60.245 0.0136132
60.445 0.0131926
60.645 0.00916334
60.845 0.00543029
61.045 0.0153628
61.245 0.0128539
61.445 -0.00414069
61.645 0.0071817
61.845 0.0107158
62.045 0.0143209
62.245 0.0137321
62.445 0.0212356
62.645 0.0319868
62.845 0.0257435
63.045 0.00575588
63.245 0.00603629
63.445 0.00343179
63.645 0.0173913
63.845 0.00339582
63.995 -0.0166257

File: Acetamidinium_Bromide.lbl_rescaled.xy
# Processed xy data with Haverford two-theta converted to LBL scale
two_theta,intensity
5.81234,3.0
6.06814,8.0
6.32395,5.0
6.57977,4.0
6.8356,3.0
7.09144,3.0
7.34728,7.0
7.60314,4.0
7.85901,5.0
8.11488,6.0
8.37077,6.0
8.62667,7.0
8.88257,5.0
9.1385,6.0
9.39443,3.0
9.65037,7.0
9.90633,4.0
10.1623,5.0
10.4183,4.0
10.6743,4.0
10.9303,2.0
11.1863,7.0
11.4424,4.0
11.6984,3.0
11.9545,3.0
12.2106,5.0
12.4667,6.0
12.7228,4.0
12.9789,4.0
13.2351,7.0
13.4912,4.0
13.7474,5.0
14.0036,5.0
14.2599,6.0
14.5161,4.0
14.7724,4.0
15.0287,4.0
15.285,4.0
15.5413,12.0
15.7976,10.0
16.054,5.0
16.3104,12.0
16.5668,39.0
16.8232,5.0
17.0797,4.0
17.3361,1.0
17.5926,4.0
17.8491,5.0
18.1057,8.0
18.3623,8.0
18.6188,8.0
18.8755,6.0
19.1321,9.0
19.3888,4.0
19.6455,11.0
19.9022,9.0
20.1589,4.0
20.4157,4.0
20.6725,10.0
20.9294,10.0
21.1862,31.0
21.4431,6.0
21.7,3.0
21.957,5.0
22.2139,4.0
22.4709,5.0
22.728,34.0
22.9851,51.0
23.2422,22.0
23.4993,7.0
23.7564,5.0
24.0136,6.0
24.2709,1.0
24.5281,7.0
24.7854,9.0
25.0428,3.0
25.3001,2.0
25.5575,15.0
25.815,237.0
26.0724,43.0
26.3299,15.0
26.5875,13.0
26.8451,22.0
27.1027,4.0
27.3603,5.0
27.618,14.0
27.8758,51.0
28.1335,6.0
28.3913,9.0
28.6492,8.0
28.9071,11.0
29.165,47.0
29.423,200.0
29.681,20.0
29.9391,12.0
30.1972,4.0
30.4553,9.0
30.7135,6.0
30.9717,10.0
31.23,9.0
31.4883,9.0
31.7467,10.0
32.0051,543.0
32.2635,43.0
32.522,9.0
32.7806,14.0
33.0392,40.0
33.2978,12.0
33.5565,49.0
33.8153,6.0
34.0741,59.0
34.3329,10.0
34.5918,6.0
34.8507,10.0
35.1097,30.0
35.3688,17.0
35.6279,5.0
35.887,6.0
36.1462,12.0
36.4055,28.0
36.6648,14.0
36.9241,21.0
37.1836,41.0
37.443,543.0
37.7026,19.0
37.9621,50.0
38.2218,11.0
38.4815,12.0
38.7412,15.0
39.0011,14.0
39.2609,14.0
39.5209,15.0
39.7809,53.0
40.0409,41.0
40.3011,9.0
40.5612,6.0
40.8215,9.0
41.0818,10.0
41.3421,11.0
41.6026,43.0
41.8631,58.0
42.1236,14.0
42.3843,9.0
42.645,18.0
42.9057,20.0
43.1665,24.0
43.4274,22.0
43.6884,6.0
43.9494,10.0
44.2105,9.0
44.4717,11.0
44.733,13.0
44.9943,20.0
45.2557,12.0
45.5171,8.0
45.7786,8.0
46.0403,11.0
46.3019,4.0
46.5637,17.0
46.8255,11.0
47.0874,6.0
47.3494,4.0
47.6115,11.0
47.8736,3.0
48.1358,7.0
48.3981,9.0
48.6605,9.0
48.923,9.0
49.1855,9.0
49.4481,26.0
49.7108,16.0
49.9736,7.0
50.2365,12.0
50.4994,3.0
50.7625,8.0
51.0256,17.0
51.2888,15.0
51.5521,11.0
51.8155,12.0
52.079,5.0
52.3426,9.0
52.6062,13.0
52.87,29.0
53.1338,25.0
53.3978,15.0
53.6618,15.0
53.9259,10.0
54.1901,37.0
54.4545,19.0
54.7189,9.0
54.9834,17.0
55.248,27.0
55.5127,24.0
55.7775,23.0
56.0424,18.0
56.3074,11.0
56.5725,10.0
56.8377,18.0
57.103,27.0
57.3685,45.0
57.634,38.0
57.8996,13.0
58.1654,13.0
58.4312,13.0
58.6972,19.0
58.9632,20.0
59.2294,16.0
59.4957,8.0
59.7621,15.0
60.0286,18.0
60.2952,16.0
60.562,20.0
60.8288,14.0
61.0958,15.0
61.3629,16.0
61.6301,10.0
61.8974,13.0
62.1649,12.0
62.4325,17.0
62.7002,12.0
62.968,10.0
63.2359,21.0
63.504,13.0
63.7722,13.0
64.0405,30.0
64.309,8.0
64.5776,12.0
64.8463,23.0
65.1151,24.0
65.3841,17.0
65.6532,12.0
65.9225,12.0
66.1919,9.0
66.4614,10.0
66.7311,8.0
67.0009,23.0
67.2708,20.0
67.5409,13.0
67.8112,11.0
68.0815,10.0
68.3521,9.0
68.6227,9.0
68.8935,13.0
69.1645,15.0
69.4356,14.0
69.7069,13.0
69.9783,28.0
70.2499,17.0
70.5216,18.0
70.7935,13.0
71.0656,14.0
71.3378,10.0
71.6102,16.0
71.8827,9.0
72.1554,8.0
72.4283,17.0
72.7013,15.0
72.9745,10.0
73.2479,10.0
73.5214,18.0
73.7951,7.0
74.069,8.0
74.3431,9.0
74.6173,24.0
74.8917,14.0
75.1663,16.0
75.4411,11.0
75.7161,11.0
75.9912,17.0
76.2665,15.0
76.5421,12.0
76.8178,8.0
77.0937,16.0
77.3698,7.0
77.6461,10.0
77.9226,4.0
78.1992,12.0
78.4761,10.0
78.7532,6.0
79.0305,7.0
79.308,10.0
79.5857,19.0
79.8636,22.0
80.1417,14.0
80.4201,7.0
80.6986,14.0
80.9774,8.0
81.2564,15.0
81.5356,15.0
81.815,6.0
82.0947,17.0
82.3746,10.0
82.6547,13.0
82.935,10.0
83.2156,9.0
83.4964,16.0
83.6241,7.0

File: Dabco_Iodide.lbl_rescaled.xy
# Processed xy data with Haverford two-theta converted to LBL scale
two_theta,intensity
5.81234,4.0
6.06814,6.0
6.32395,5.0
6.57977,5.0
6.8356,3.0
7.09144,7.0
7.34728,7.0
7.60314,5.0
7.85901,3.0
8.11488,3.0
8.37077,5.0
8.62667,5.0
8.88257,4.0
9.1385,6.0
9.39443,3.0
9.65037,0.0
9.90633,4.0
10.1623,2.0
10.4183,6.0
10.6743,2.0
10.9303,6.0
11.1863,6.0
11.4424,4.0
11.6984,6.0
11.9545,5.0
12.2106,6.0
12.4667,8.0
12.7228,0.0
12.9789,3.0
13.2351,6.0
13.4912,7.0
13.7474,2.0
14.0036,5.0
14.2599,7.0
14.5161,6.0
14.7724,7.0
15.0287,6.0
15.285,5.0
15.5413,5.0
15.7976,4.0
16.054,7.0
16.3104,5.0
16.5668,5.0
16.8232,6.0
17.0797,8.0
17.3361,8.0
17.5926,28.0
17.8491,77.0
18.1057,31.0
18.3623,8.0
18.6188,3.0
18.8755,8.0
19.1321,6.0
19.3888,4.0
19.6455,6.0
19.9022,4.0
20.1589,3.0
20.4157,3.0
20.6725,3.0
20.9294,7.0
21.1862,4.0
21.4431,0.0
21.7,4.0
21.957,7.0
22.2139,4.0
22.4709,7.0
22.728,8.0
22.9851,7.0
23.2422,22.0
23.4993,168.0
23.7564,103.0
24.0136,69.0
24.2709,12.0
24.5281,7.0
24.7854,4.0
25.0428,6.0
25.3001,8.0
25.5575,10.0
25.815,5.0
26.0724,5.0
26.3299,20.0
26.5875,199.0
26.8451,12.0
27.1027,27.0
27.3603,314.0
27.618,12.0
27.8758,10.0
28.1335,8.0
28.3913,4.0
28.6492,10.0
28.9071,10.0
29.165,12.0
29.423,3.0
29.681,6.0
29.9391,8.0
30.1972,3.0
30.4553,6.0
30.7135,9.0
30.9717,46.0
31.23,63.0
31.4883,7.0
31.7467,13.0
32.0051,14.0
32.2635,54.0
32.522,61.0
32.7806,51.0
33.0392,14.0
33.2978,76.0
33.5565,11.0
33.8153,8.0
34.0741,8.0
34.3329,5.0
34.5918,8.0
34.8507,5.0
35.1097,9.0
35.3688,4.0
35.6279,10.0
35.887,43.0
36.1462,124.0
36.4055,15.0
36.6648,25.0
36.9241,87.0
37.1836,9.0
37.443,7.0
37.7026,7.0
37.9621,7.0
38.2218,6.0
38.4815,7.0
38.7412,14.0
39.0011,5.0
39.2609,56.0
39.5209,87.0
39.7809,9.0
40.0409,9.0
40.3011,6.0
40.5612,10.0
40.8215,7.0
41.0818,3.0
41.3421,22.0
41.6026,43.0
41.8631,15.0
42.1236,27.0
42.3843,25.0
42.645,26.0
42.9057,16.0
43.1665,44.0
43.4274,7.0
43.6884,29.0
43.9494,5.0
44.2105,8.0
44.4717,8.0
44.733,9.0
44.9943,12.0
45.2557,74.0
45.5171,26.0
45.7786,53.0
46.0403,76.0
46.3019,15.0
46.5637,44.0
46.8255,14.0
47.0874,12.0
47.3494,16.0
47.6115,23.0
47.8736,7.0
48.1358,13.0
48.3981,47.0
48.6605,11.0
48.923,32.0
49.1855,9.0
49.4481,6.0
49.7108,11.0
49.9736,14.0
50.2365,10.0
50.4994,7.0
50.7625,8.0
51.0256,38.0
51.2888,25.0
51.5521,5.0
51.8155,4.0
52.079,3.0
52.3426,8.0
52.6062,8.0
52.87,4.0
53.1338,10.0
53.3978,6.0
53.6618,6.0
53.9259,11.0
54.1901,6.0
54.4545,4.0
54.7189,13.0
54.9834,15.0
55.248,25.0
55.5127,13.0
55.7775,17.0
56.0424,25.0
56.3074,11.0
56.5725,45.0
56.8377,16.0
57.103,24.0
57.3685,16.0
57.634,17.0
57.8996,11.0
58.1654,20.0
58.4312,11.0
58.6972,9.0
58.9632,10.0
59.2294,22.0
59.4957,7.0
59.7621,22.0
60.0286,7.0
60.2952,27.0
60.562,20.0
60.8288,22.0
61.0958,23.0
61.3629,10.0
61.6301,25.0
61.8974,11.0
62.1649,19.0
62.4325,23.0
62.7002,63.0
62.968,20.0
63.2359,10.0
63.504,13.0
63.7722,14.0
64.0405,15.0
64.309,13.0
64.5776,13.0
64.8463,13.0
65.1151,14.0
65.3841,20.0
65.6532,19.0
65.9225,9.0
66.1919,10.0
66.4614,9.0
66.7311,8.0
67.0009,10.0
67.2708,9.0
67.5409,12.0
67.8112,20.0
68.0815,15.0
68.3521,7.0
68.6227,6.0
68.8935,15.0
69.1645,11.0
69.4356,7.0
69.7069,15.0
69.9783,11.0
70.2499,7.0
70.5216,9.0
70.7935,6.0
71.0656,7.0
71.3378,9.0
71.6102,14.0
71.8827,11.0
72.1554,12.0
72.4283,8.0
72.7013,11.0
72.9745,8.0
73.2479,6.0
73.5214,21.0
73.7951,18.0
74.069,9.0
74.3431,10.0
74.6173,7.0
74.8917,5.0
75.1663,12.0
75.4411,13.0
75.7161,23.0
75.9912,22.0
76.2665,11.0
76.5421,26.0
76.8178,18.0
77.0937,16.0
77.3698,10.0
77.6461,8.0
77.9226,17.0
78.1992,16.0
78.4761,18.0
78.7532,12.0
79.0305,7.0
79.308,10.0
79.5857,9.0
79.8636,12.0
80.1417,11.0
80.4201,9.0
80.6986,9.0
80.9774,11.0
81.2564,6.0
81.5356,11.0
81.815,12.0
82.0947,4.0
82.3746,8.0
82.6547,5.0
82.935,17.0
83.2156,6.0
83.4964,11.0
83.6241,5.0