Folder: rapid/data/xrd/xy (part 8)

File: 2019-05-29T19_56_50.129046+00_00_LBL_E2.xy
'Id: "" Comment: "Integrate frame 4Fluorophenyl_04_002.gfrmwith cursor Wedge Cursor #4" Operator: "UC Berkeley" Anode: "Co" Scantype: "TwoTheta" TimePerStep: "600"
14.43 -0.0275238
14.595 0.00628408
14.76 -0.00409363
14.925 0.047946
15.09 0.0149788
15.255 0.024765
15.42 0.0482216
15.585 0.0388445
15.75 0.0353318
15.915 0.0381894
16.08 0.0189494
16.245 0.0172681
16.41 0.0112838
16.575 0.0169447
16.74 -0.000242076
16.905 0.0375232
17.07 0.00932642
17.235 0.0351843
17.4 0.0378411
17.565 0.00983509
17.73 0.00183914
17.895 0.0493317
18.06 0.0175513
18.225 0.00119866
18.39 0.0465448
18.555 0.0432402
18.72 0.0599425
18.885 0.0297348
19.05 0.00676178
19.215 0.0158284
19.38 0.0538481
19.545 0.0316528
19.71 0.00923482
19.875 0.0264875
20.04 0.00490019
20.205 0.0100992
20.37 -0.0155842
20.535 0.00516192
20.7 0.017165
20.865 0.0191374
21.03 0.0240658
21.195 0.00289642
21.36 0.0114198
21.525 0.0327559
21.69 -0.0149382
21.855 0.00895939
22.02 -0.00418824
22.185 0.00617585
22.35 0.0173155
22.515 0.0401296
22.68 -0.0154782
22.845 0.0114547
23.01 0.027498
23.175 0.0164528
23.34 0.0143465
23.505 0.0332562
23.67 0.0513396
23.835 -0.0109981
24 0.0194
24.165 0.0359486
24.33 0.00298429
24.495 0.0359708
24.66 0.0394942
24.825 0.0704453
24.99 1.04068
25.155 0.284736
25.32 0.0421514
25.485 0.0204725
25.65 0.0322687
25.815 0.0202288
25.98 0.0143815
26.145 0.035922
26.31 0.035413
26.475 0.0310929
26.64 0.0397848
26.805 0.0273904
26.97 0.019935
27.135 0.14657
27.3 9.97571e-05
27.465 -0.000700806
27.63 -0.0164631
27.795 0.0129943
27.96 0.0201369
28.125 0.0412849
28.29 0.0112463
28.455 0.017617
28.62 0.0376332
28.785 0.0694448
28.95 0.0441142
29.115 -0.00406238
29.28 0.0295734
29.445 0.0322242
29.61 0.039594
29.775 0.0412674
29.94 0.024448
30.105 0.0145832
30.27 0.0586069
30.435 0.274812
30.6 0.102864
30.765 0.0218184
30.93 0.0479003
31.095 0.0495816
31.26 0.118744
31.425 1.13545
31.59 0.409123
31.755 0.13159
31.92 0.109274
32.085 0.0686051
32.25 0.0154977
32.415 -0.0198458
32.58 0.00383914
32.745 0.0178651
32.91 0.00332259
33.075 0.0129605
33.24 -0.0166136
33.405 0.00181242
33.57 0.00922676
33.735 0.0398029
33.9 0.471056
34.065 0.305622
34.23 0.157738
34.395 0.00448726
34.56 0.000245887
34.725 -0.00577137
34.89 0.0242044
35.055 0.027624
35.22 0.0100219
35.385 0.00580482
35.55 -0.00626008
35.715 0.0151316
35.88 -0.0163555
36.045 -0.00090797
36.21 -0.0143023
36.375 -0.00672862
36.54 0.0112745
36.705 0.0376866
36.87 0.0084422
37.035 0.0159146
37.2 0.0287863
37.365 0.232616
37.53 0.483647
37.695 0.328942
37.86 0.874959
38.025 5.82096
38.19 0.675206
38.355 0.221082
38.52 0.0912823
38.685 0.0361004
38.85 0.0240988
39.015 0.00297916
39.18 0.0233682
39.345 0.010567
39.51 0.0141122
39.675 0.0871353
39.84 0.195446
40.005 0.269564
40.17 0.0913838
40.335 -0.00697407
40.5 -0.0114165
40.665 0.0140066
40.83 0.158181
40.995 0.114012
41.16 0.0169512
41.325 -0.00152986
41.49 -0.00474478
41.655 -0.0199573
41.82 0.0168232
41.985 -0.0111109
42.15 0.00434411
42.315 -0.0110691
42.48 -0.00290816
42.645 -0.00232562
42.81 0.00634418
42.975 -0.00231117
43.14 -0.0119874
43.305 0.00727928
43.47 0.095254
43.635 0.0299169
43.8 0.00917867
43.965 0.00250007
44.13 -0.0143655
44.295 0.0491548
44.46 0.045762
44.625 0.112793
44.79 0.114843
44.955 0.661378
45.12 0.204539
45.285 0.0843638
45.45 0.189603
45.615 0.0519345
45.78 -0.0187747
45.945 -0.00855373
46.11 0.0145703
46.275 0.0612638
46.44 0.0116567
46.605 0.00207581
46.77 0.00560153
46.935 0.00506328
47.1 -0.00628219
47.265 0.0202979
47.43 0.0240125
47.595 0.00538363
47.76 -0.00760069
47.925 0.0445533
48.09 0.289263
48.255 0.0684657
48.42 -0.00363871
48.585 -0.00135812
48.75 0.0249247
48.915 0.428318
49.08 0.300556
49.245 0.334642
49.41 0.0490295
49.575 0.0582032
49.74 0.0508837
49.905 0.0111907
50.07 0.0120634
50.235 -0.00423615
50.4 0.0273812
50.565 0.0793466
50.73 0.00574807
50.895 0.00794426
51.06 0.0235595
51.225 0.104404
51.39 0.0724086
51.555 0.103249
51.72 0.277167
51.885 0.0492015
52.05 -0.00328318
52.215 -0.0153588
52.38 0.00263364
52.545 -0.00689792
52.71 -0.00563477
52.875 -0.00272313
53.04 0.0155523
53.205 -0.0163961
53.37 -0.0177323
53.535 -0.0069475
53.7 0.0464452
53.865 0.0487462
54.03 0.05922
54.195 0.00384816
54.36 0.000716773
54.525 0.171836
54.69 0.100669
54.855 0.0654596
55.02 0.0103008
55.185 0.0675234
55.35 0.0486676
55.515 0.0170493
55.68 -0.0109346
55.845 0.0413516
56.01 0.166428
56.175 0.0350807
56.34 0.0114729
56.505 0.013263
56.67 -0.00276818
56.835 -0.00691024
57 -0.00194801
57.165 0.010139
57.33 0.00793001
57.495 0.0220618
57.66 0.0114941
57.825 -0.00210545
57.99 -0.0107695
58.155 0.000932289
58.32 -0.00413754
58.485 0.0409536
58.65 0.0777752
58.815 0.00742907
58.98 -0.00544062
59.145 -0.00668743
59.31 0.00680215
59.475 0.0363827
59.64 0.00444359
59.805 -0.00415729
59.97 0.0196125
60.135 -0.010709
60.3 -0.013254
60.465 0.00922622
60.63 0.0534291
60.795 0.0297061
60.96 -0.00989798
61.125 -0.00843327
61.29 0.0361315
61.455 0.0117351
61.62 -0.0110582
61.785 0.0133771
61.95 0.00270113
62.115 -0.014948
62.28 0.0136794
62.445 0.0316551
62.61 0.0791124
62.775 0.0579477
62.94 0.0141624
63.105 -0.003236
63.27 0.0530056
63.435 0.0469217
63.6 0.00551207
63.765 -0.0160535
63.82 -0.0185292

File: 2019-05-29T19_56_50.129046+00_00_LBL_E8.xy
'Id: "" Comment: "Integrate frame 4Fluorophenyl_05_002.gfrmwith cursor Wedge Cursor #1" Operator: "UC Berkeley" Anode: "Co" Scantype: "TwoTheta" TimePerStep: "600"
14.435 -0.0420468
14.61 0.0322529
14.785 0.0950279
14.96 0.0342132
15.135 0.0100385
15.31 0.0225003
15.485 0.0682607
15.66 0.0502087
15.835 0.0194899
16.01 0.0897078
16.185 0.0457292
16.36 0.0771996
16.535 0.0136443
16.71 0.0443429
16.885 -0.00437279
17.06 0.0760536
17.235 0.218988
17.41 -0.0238813
17.585 0.0404117
17.76 0.0219116
17.935 0.0126376
18.11 0.0249687
18.285 0.0211713
18.46 0.0694933
18.635 0.243855
18.81 0.0474177
18.985 0.030173
19.16 0.0446383
19.335 0.0433151
19.51 0.0162924
19.685 0.0351289
19.86 0.0533033
20.035 0.0268013
20.21 0.0729704
20.385 -0.0183879
20.56 0.0535153
20.735 0.0456839
20.91 0.0346028
21.085 -0.0139463
21.26 0.00620623
21.435 0.00595078
21.61 0.0400197
21.785 0.0309813
21.96 0.0281969
22.135 0.044396
22.31 0.0587844
22.485 0.0163198
22.66 0.0195574
22.835 0.0677843
23.01 0.0356673
23.185 0.0719238
23.36 0.0412887
23.535 0.0715221
23.71 0.0297114
23.885 0.0925931
24.06 0.0515181
24.235 0.0288745
24.41 0.0226605
24.585 0.0419822
24.76 0.00618064
24.935 0.506555
25.11 0.268427
25.285 0.0221542
25.46 0.00419544
25.635 0.0107306
25.81 0.00863337
25.985 0.00315056
26.16 0.027066
26.335 0.0191495
26.51 0.173731
26.685 0.151143
26.86 -0.00399697
27.035 0.0315738
27.21 0.0662984
27.385 -0.000202383
27.56 0.0194433
27.735 0.022832
27.91 0.00788213
28.085 0.00515927
28.26 0.0300428
28.435 0.0477335
28.61 0.035566
28.785 0.0529347
28.96 0.00635501
29.135 -0.00626381
29.31 0.0110288
29.485 0.0109013
29.66 0.0127056
29.835 -0.0311724
30.01 0.0189013
30.185 -0.0130925
30.36 0.0517938
30.535 0.0699078
30.71 0.0621008
30.885 0.0283625
31.06 0.334553
31.235 0.250052
31.41 2.46047
31.585 0.298145
31.76 0.224403
31.935 0.0879753
32.11 0.0287457
32.285 0.00631402
32.46 -0.0057878
32.635 0.0384962
32.81 -0.00579192
32.985 -0.00222359
33.16 -0.000205928
33.335 0.00467907
33.51 0.0213784
33.685 0.0272409
33.86 0.262613
34.035 0.323151
34.21 0.302354
34.385 0.0249218
34.56 -0.0129665
34.735 0.0236875
34.91 0.0291659
35.085 -0.00291251
35.26 0.03935
35.435 -0.00911464
35.61 -0.00366947
35.785 0.00410539
35.96 0.00510588
36.135 0.00139877
36.31 -0.0115063
36.485 0.0145176
36.66 0.00873623
36.835 -0.0114609
37.01 0.0143642
37.185 -0.0270041
37.36 0.00957728
37.535 0.101333
37.71 0.190259
37.885 1.00435
38.06 0.379127
38.235 0.077949
38.41 0.0416091
38.585 0.00384462
38.76 0.00687865
38.935 -0.00557665
39.11 -0.0229089
39.285 -0.0168112
39.46 -0.0020434
39.635 0.0146716
39.81 0.0157361
39.985 0.0529349
40.16 0.0149124
40.335 -0.00715418
40.51 -0.00444872
40.685 -0.00442115
40.86 0.00117462
41.035 0.0205067
41.21 0.003354
41.385 -0.00350421
41.56 -0.0188369
41.735 -0.00351625
41.91 0.00897001
42.085 0.013899
42.26 0.00109634
42.435 0.00421207
42.61 -0.00793281
42.785 -0.0126652
42.96 0.00792084
43.135 0.00431404
43.31 0.0119974
43.485 0.0104911
43.66 0.0227792
43.835 0.0156325
44.01 0.018536
44.185 0.00127404
44.36 0.0211614
44.535 0.0135092
44.71 0.0208122
44.885 -0.0141616
45.06 -0.012278
45.235 0.0143141
45.41 0.000212559
45.585 0.013252
45.76 0.0131408
45.935 -0.0139105
46.11 0.00543237
46.285 0.0135842
46.46 -0.000614968
46.635 0.00535108
46.81 0.0035874
46.985 0.00954339
47.16 0.004228
47.335 0.00264787
47.51 -0.00660772
47.685 0.0084654
47.86 -0.00820896
48.035 0.00717148
48.21 -0.00697692
48.385 -0.0032803
48.56 0.00692481
48.735 0.00578589
48.91 0.00277434
49.085 0.0102851
49.26 0.00241515
49.435 0.00328654
49.61 -0.00491421
49.785 -0.00556247
49.96 -0.00752162
50.135 -0.00371377
50.31 -0.0128537
50.485 -0.012911
50.66 -0.00497602
50.835 -0.00332592
51.01 -0.0120336
51.185 -0.0133457
51.36 -0.00817528
51.535 -0.0014886
51.71 0.00448422
51.885 -0.0136304
52.06 0.00253238
52.235 -0.0119561
52.41 -0.00236578
52.585 -0.00982449
52.76 0.000245626
52.935 -0.00804002
53.11 0.00198123
53.285 0.00287202
53.46 0.00944794
53.635 0.00889987
53.81 -0.0119268
53.985 0.0013945
54.16 -0.00603683
54.335 0.00321931
54.51 0.00856451
54.685 -0.00544048
54.86 -0.00211548
55.035 -0.00216466
55.21 -0.00628209
55.385 -0.00517127
55.56 0.00204444
55.735 -0.00346176
55.91 0.000939984
56.085 -0.00612015
56.26 0.00337107
56.435 0.00571121
56.61 -0.0109808
56.785 -0.00693278
56.96 0.00136682
57.135 0.00766572
57.31 0.000402388
57.485 0.0170266
57.66 -0.000545864
57.835 -0.00643533
58.01 0.0152421
58.185 0.00445722
58.36 0.0168125
58.535 -0.00636966
58.71 -0.00977441
58.885 -0.000291259
59.06 0.0114132
59.235 0.00915999
59.41 0.00854368
59.585 -0.00304906
59.76 0.0117566
59.935 -0.000979217
60.11 0.00144791
60.285 0.0175921
60.46 -0.00655253
60.635 0.0099784
60.81 0.00185075
60.985 0.000511079
61.16 -0.00640472
61.335 0.0103145
61.51 -0.00400013
61.685 -0.00287769
61.86 -0.0169704
62.035 0.0135648
62.21 -0.00242958
62.385 0.00876932
62.56 0.0102363
62.735 0.00334825
62.91 0.00298951
63.085 0.00913288
63.26 0.00368412
63.435 0.00406678
63.61 0.00658601
63.785 0.00551027
63.96 0.00819717
64.135 0.0066684
64.31 0.0105311
64.485 0.00874988
64.66 0.0100369
64.835 0.00176049
65.01 0.00853693
65.185 -0.000658911
65.36 0.00241384
65.535 0.000835113
65.71 0.00519163
65.85 -0.0160587

File: 2019-05-29T19_56_50.129046+00_00_LBL_G1.xy
'Id: "" Comment: "Integrate frame 4Fluorophenyl_03_002.gfrmwith cursor Wedge Cursor #3" Operator: "UC Berkeley" Anode: "Co" Scantype: "TwoTheta" TimePerStep: "600"
14.415 -0.0268868
14.59 0.113911
14.765 0.01523
14.94 0.00158692
15.115 0.0192764
15.29 0.0230063
15.465 0.0775942
15.64 0.0215918
15.815 0.033108
15.99 0.00208883
16.165 0.0486032
16.34 0.0136632
16.515 0.0207086
16.69 0.0721761
16.865 0.026621
17.04 0.106718
17.215 0.324992
17.39 0.0182156
17.565 0.0306818
17.74 0.00213735
17.915 0.0253649
18.09 0.0355608
18.265 0.0545813
18.44 0.456855
18.615 1.15677
18.79 0.0234809
18.965 0.00753858
19.14 0.00978229
19.315 0.0152806
19.49 0.0116629
19.665 -0.00355801
19.84 -0.000315118
20.015 0.00862222
20.19 -0.00572974
20.365 0.0216634
20.54 0.0242908
20.715 0.0206976
20.89 0.0195372
21.065 0.0290696
21.24 -0.00912565
21.415 0.0150233
21.59 -0.007042
21.765 0.0215699
21.94 0.026862
22.115 0.015505
22.29 0.00491713
22.465 0.0366701
22.64 0.0200508
22.815 0.00834404
22.99 0.00774425
23.165 -0.00268119
23.34 0.0218429
23.515 0.0277488
23.69 0.0364751
23.865 0.0200436
24.04 -0.006913
24.215 -0.0097589
24.39 -1.97631e-05
24.565 0.0509334
24.74 0.254691
24.915 3.70815
25.09 1.23518
25.265 0.0561086
25.44 0.0197321
25.615 0.0209717
25.79 -0.0197235
25.965 -0.018504
26.14 0.0238206
26.315 0.0204068
26.49 0.0305146
26.665 0.0568063
26.84 0.0157943
27.015 0.0561174
27.19 0.141278
27.365 0.0158629
27.54 -0.00228395
27.715 0.0135408
27.89 0.0398958
28.065 -0.00916428
28.24 0.00447685
28.415 0.0284075
28.59 0.03433
28.765 0.027238
28.94 0.0102411
29.115 0.00902681
29.29 0.00231217
29.465 0.00896822
29.64 0.0576295
29.815 -0.0234892
29.99 0.097222
30.165 0.527546
30.34 0.0768455
30.515 0.0248479
30.69 0.0162098
30.865 0.0553179
31.04 0.166801
31.215 1.92742
31.39 14.574
31.565 1.23681
31.74 0.372905
31.915 0.126231
32.09 0.0431083
32.265 0.00524523
32.44 0.00472372
32.615 -0.00997425
32.79 -0.00573189
32.965 0.000468551
33.14 -0.0117271
33.315 -0.0159035
33.49 -0.00671193
33.665 0.00780649
33.84 0.271625
34.015 0.381223
34.19 0.189869
34.365 0.106389
34.54 0.400216
34.715 0.086171
34.89 0.0491331
35.065 0.00483912
35.24 0.0129021
35.415 -0.0170422
35.59 -0.00963268
35.765 -0.00258517
35.94 -0.0160545
36.115 0.000119685
36.29 0.0137717
36.465 -0.00843257
36.64 -0.0225587
36.815 -0.0165301
36.99 -0.0090297
37.165 -0.00203346
37.34 0.0799638
37.515 0.172556
37.69 0.450775
37.865 11.6135
38.04 4.30584
38.215 0.249821
38.39 0.0962999
38.565 0.0971147
38.74 -0.0017827
38.915 -0.00627793
39.09 -0.0120279
39.265 -0.0181778
39.44 -0.00352026
39.615 0.0631404
39.79 0.0767366
39.965 0.269256
40.14 0.12702
40.315 0.00644573
40.49 -0.0186447
40.665 0.142146
40.84 0.207112
41.015 0.0257084
41.19 -0.019582
41.365 -0.01832
41.54 0.00740203
41.715 0.0100964
41.89 0.0202724
42.065 0.0112764
42.24 -0.00371118
42.415 -0.0137175
42.59 0.0055401
42.765 -0.00661493
42.94 -0.0215711
43.115 -0.00145558
43.29 0.0457851
43.465 0.0284535
43.64 0.036259
43.815 0.0037499
43.99 0.0186331
44.165 -0.00301845
44.34 0.0154006
44.515 0.0559123
44.69 0.109234
44.865 0.0712035
45.04 0.134205
45.215 0.548547
45.39 0.122936
45.565 0.00616551
45.74 -0.00766428
45.915 0.0162097
46.09 0.137475
46.265 0.49264
46.44 0.136071
46.615 5.85283e-05
46.79 -0.000931379
46.965 -0.00642248
47.14 0.0172758
47.315 0.0263865
47.49 0.0252278
47.665 -0.00332027
47.84 0.00386043
48.015 0.00445015
48.19 0.0064997
48.365 -0.00625812
48.54 0.0118185
48.715 0.0790754
48.89 0.117529
49.065 0.0265777
49.24 0.0698196
49.415 0.0240457
49.59 0.0711872
49.765 0.0629079
49.94 0.000979709
50.115 -0.00113958
50.29 0.00421561
50.465 -0.00441581
50.64 0.00716036
50.815 -0.00963953
50.99 -0.00195544
51.165 -0.00942425
51.34 0.0185519
51.515 0.0824867
51.69 0.0531379
51.865 -0.000292323
52.04 -0.00557511
52.215 -0.00228584
52.39 0.0366966
52.565 0.0421592
52.74 0.00216296
52.915 0.0652934
53.09 0.0570641
53.265 0.00971124
53.44 -0.0160795
53.615 0.0165699
53.79 0.048684
53.965 0.0384628
54.14 -0.0192728
54.315 0.00159594
54.49 0.0365109
54.665 0.0490416
54.84 0.0107285
55.015 0.152187
55.19 0.0998956
55.365 0.0327742
55.54 0.00994905
55.715 0.00622786
55.89 0.0356572
56.065 0.0342683
56.24 0.0582273
56.415 0.0427097
56.59 -0.00432438
56.765 -0.0112148
56.94 0.00346577
57.115 -0.000520898
57.29 0.000961583
57.465 0.0106942
57.64 0.0184263
57.815 0.0018285
57.99 0.00814128
58.165 -0.0145373
58.34 0.0231197
58.515 0.00479839
58.69 0.01033
58.865 0.0529712
59.04 0.0696343
59.215 0.0354846
59.39 0.00280434
59.565 -0.0145285
59.74 -0.0164404
59.915 0.004475
60.09 0.0123805
60.265 0.00826119
60.44 0.0103531
60.615 0.000941388
60.79 -0.00532525
60.965 0.00434935
61.14 0.0404509
61.315 0.0188875
61.49 0.0773948
61.665 0.142087
61.84 0.0779695
62.015 0.00431068
62.19 -0.0110052
62.365 -0.0178332
62.54 0.0239726
62.715 0.0491452
62.89 0.0189737
63.065 0.0464146
63.24 0.152644
63.415 0.0875836
63.59 0.0395575
63.765 0.00774161
63.94 -0.00794086
64.115 0.0136595
64.29 -0.00465265
64.465 0.00782428
64.64 0.00173624
64.815 0.0121317
64.99 0.00239752
65.165 -0.0126206
65.34 -0.00872651
65.515 0.0347797
65.69 0.00430362
65.865 -0.00927967
65.915 -0.0181453

File: 2019-05-30T15_13_14.483373+00_00_LBL_C6.xy
'Id: "" Comment: "Integrate frame EtNH3I_iPropyl_05_003.gfrmwith cursor Wedge Cursor #4" Operator: "UC Berkeley" Anode: "Co" Scantype: "TwoTheta" TimePerStep: "300"
15.055 -0.0363643
15.22 0.0167048
15.385 0.0586574
15.55 0.0325645
15.715 0.0494248
15.88 -0.0348068
16.045 0.0258709
16.21 0.0329334
16.375 0.030554
16.54 0.0243061
16.705 0.00220268
16.87 0.0144374
17.035 0.0333179
17.2 0.0854735
17.365 -0.00211386
17.53 0.0593443
17.695 0.0254657
17.86 0.0314982
18.025 0.0425474
18.19 0.0578796
18.355 0.0432875
18.52 0.042958
18.685 0.119396
18.85 0.168462
19.015 0.0908963
19.18 0.0193705
19.345 0.0790119
19.51 0.0206162
19.675 0.0395817
19.84 0.00954274
20.005 0.0448115
20.17 0.0919553
20.335 0.0257018
20.5 0.018751
20.665 0.0652694
20.83 0.0327284
20.995 0.0466563
21.16 0.0333679
21.325 0.0127326
21.49 0.0608034
21.655 0.0621794
21.82 0.0611164
21.985 0.0917217
22.15 0.0310916
22.315 0.0436956
22.48 -0.000939906
22.645 0.0658603
22.81 -0.00797457
22.975 0.0298981
23.14 0.0418326
23.305 0.00118818
23.47 0.00359425
23.635 0.0590909
23.8 0.0923809
23.965 0.036664
24.13 0.0140996
24.295 0.0386947
24.46 0.0165961
24.625 0.00176521
24.79 0.0259802
24.955 0.0280547
25.12 0.0336618
25.285 0.0837808
25.45 0.0487849
25.615 0.0575749
25.78 0.0489678
25.945 0.0635147
26.11 -0.0123068
26.275 0.00918212
26.44 0.0495377
26.605 0.0528441
26.77 0.0239141
26.935 0.0316934
27.1 0.046332
27.265 0.0164885
27.43 0.0747036
27.595 0.072157
27.76 0.141196
27.925 0.218627
28.09 0.127813
28.255 0.245855
28.42 0.371181
28.585 0.121316
28.75 0.0535181
28.915 0.100615
29.08 0.202039
29.245 0.115767
29.41 0.10162
29.575 0.072841
29.74 0.00953581
29.905 -0.015808
30.07 -0.0081698
30.235 -0.029413
30.4 0.00378703
30.565 -0.00289043
30.73 0.0199011
30.895 0.0569422
31.06 0.0127128
31.225 0.0123419
31.39 -0.000573457
31.555 -0.0112807
31.72 -0.0047751
31.885 -0.0310024
32.05 0.0269313
32.215 0.0840005
32.38 0.198428
32.545 0.187136
32.71 0.0395697
32.875 0.00703809
33.04 -0.0028964
33.205 -0.0212079
33.37 0.00215069
33.535 0.0108426
33.7 0.0276338
33.865 0.0255196
34.03 0.0169527
34.195 0.0912137
34.36 0.0848458
34.525 0.0738292
34.69 0.0265618
34.855 0.0299089
35.02 0.0361574
35.185 0.0276932
35.35 -0.00148411
35.515 0.00591105
35.68 0.0282077
35.845 0.0147129
36.01 0.00116829
36.175 0.0136298
36.34 0.00793611
36.505 0.00869954
36.67 0.0142985
36.835 -0.00290498
37 0.0362217
37.165 0.0185851
37.33 0.00952144
37.495 -0.000980233
37.66 0.000567017
37.825 -0.0112932
37.99 0.00345458
38.155 0.0548786
38.32 -0.0136649
38.485 -0.0116038
38.65 -0.00723009
38.815 0.0615258
38.98 0.118798
39.145 0.0827307
39.31 0.0283927
39.475 0.0129511
39.64 0.00337703
39.805 -0.013422
39.97 -0.0184228
40.135 -0.0016858
40.3 -0.017262
40.465 0.00748191
40.63 0.0113548
40.795 -0.00170231
40.96 0.0125354
41.125 0.0040515
41.29 0.0175318
41.455 0.0137899
41.62 0.00923147
41.785 -0.013312
41.95 0.0144722
42.115 0.0371492
42.28 -0.0172938
42.445 0.0055222
42.61 0.0185017
42.775 0.00230148
42.94 0.0196649
43.105 0.0337997
43.27 0.00732844
43.435 0.0261574
43.6 0.0501091
43.765 0.0681959
43.93 0.0757897
44.095 0.0329716
44.26 0.032745
44.425 0.0418344
44.59 0.0255755
44.755 0.0347499
44.92 0.0167584
45.085 0.00494158
45.25 0.0127731
45.415 -0.0172052
45.58 0.0247852
45.745 0.0170683
45.91 0.0357499
46.075 0.281035
46.24 0.277449
46.405 0.0859438
46.57 0.0325825
46.735 0.103356
46.9 0.0920593
47.065 0.251114
47.23 0.240791
47.395 0.141993
47.56 0.0359609
47.725 0.0660637
47.89 0.052206
48.055 0.0757395
48.22 0.209211
48.385 0.0777247
48.55 0.038216
48.715 0.0170759
48.88 -0.00143777
49.045 -0.0103081
49.21 0.00712582
49.375 0.00714984
49.54 -0.0118173
49.705 -0.00148242
49.87 -0.0151331
50.035 -0.00849786
50.2 0.0100054
50.365 -0.024552
50.53 -0.00202147
50.695 -0.015976
50.86 0.0256574
51.025 -0.0158188
51.19 0.00694609
51.355 -0.0297272
51.52 -0.0149842
51.685 -0.00976853
51.85 -0.0182594
52.015 0.00333669
52.18 0.0117834
52.345 -0.00209532
52.51 0.00143956
52.675 0.0124078
52.84 0.0225933
53.005 0.00822817
53.17 0.00324133
53.335 0.0334241
53.5 0.00720241
53.665 -0.0125073
53.83 0.00775478
53.995 0.0204875
54.16 -0.00976242
54.325 0.00623846
54.49 0.0241283
54.655 0.0433281
54.82 0.0527416
54.985 0.0280278
55.15 0.00941183
55.315 0.014435
55.48 0.0199842
55.645 0.00603983
55.81 0.0190588
55.975 -0.00729475
56.14 -0.0127229
56.305 0.0164886
56.47 -0.00850438
56.635 -0.00345878
56.8 0.0130998
56.965 -0.0224717
57.13 -0.013202
57.295 -9.9932e-07
57.46 0.00781221
57.625 0.0152642
57.79 0.00992737
57.955 -0.0065183
58.12 0.0312745
58.285 0.0226412
58.45 0.0134728
58.615 0.0950345
58.78 0.113358
58.945 0.0481339
59.11 0.0388163
59.275 0.0302215
59.44 0.00334761
59.605 -0.00622763
59.77 0.00784839
59.935 0.00589717
60.1 -0.000946361
60.265 0.0102617
60.43 -0.0126828
60.595 -0.00108731
60.76 0.00819006
60.925 0.0151556
61.09 -0.000152628
61.255 0.0237067
61.42 0.0108461
61.585 0.00249203
61.75 0.0136982
61.915 0.00928135
62.08 0.0101067
62.245 0.00551387
62.41 -0.0123928
62.575 0.00578757
62.74 0.0242306
62.905 -0.019415
63.07 0.0242348
63.235 0.00334121
63.4 0.00962933
63.565 -0.0164432
63.73 -0.00184252
63.78 -0.0266271

File: 2019-05-30T15_13_14.483373+00_00_LBL_F11.xy
'Id: "" Comment: "Integrate frame EtNH3I_iPropyl_07_003.gfrmwith cursor Wedge Cursor #1" Operator: "UC Berkeley" Anode: "Co" Scantype: "TwoTheta" TimePerStep: "300"
14.86 -0.0364104
15.03 0.0131752
15.2 0.107034
15.37 0.0384659
15.54 0.0359379
15.71 0.0792579
15.88 0.0451932
16.05 0.0712812
16.22 0.0958349
16.39 0.00959049
16.56 0.0826362
16.73 0.0715368
16.9 0.048697
17.07 0.0333969
17.24 0.0448523
17.41 0.00157687
17.58 0.0605632
17.75 0.0112254
17.92 0.0162598
18.09 0.0257137
18.26 0.0316168
18.43 0.0252225
18.6 0.0686286
18.77 0.0539458
18.94 -0.0146294
19.11 0.0212901
19.28 0.00560293
19.45 0.00176974
19.62 0.0683527
19.79 0.0107762
19.96 0.0245441
20.13 0.0670238
20.3 0.029001
20.47 0.0268683
20.64 0.0193072
20.81 -0.0129657
20.98 0.0300493
21.15 0.0233219
21.32 0.0215208
21.49 0.0578202
21.66 0.0376766
21.83 0.0676772
22 0.0813971
22.17 0.0763434
22.34 0.0516806
22.51 0.0804368
22.68 0.059919
22.85 0.0557
23.02 0.0921352
23.19 0.0859908
23.36 0.0948265
23.53 0.0661835
23.7 0.00342428
23.87 0.0142322
24.04 0.0487007
24.21 -0.0211338
24.38 0.0162543
24.55 0.0427092
24.72 0.0231434
24.89 0.0336451
25.06 0.165236
25.23 0.418353
25.4 0.227973
25.57 0.0920487
25.74 0.0760888
25.91 0.0282513
26.08 0.0304707
26.25 0.0535323
26.42 0.0538179
26.59 0.0151515
26.76 -0.0085725
26.93 0.00675381
27.1 0.0287829
27.27 0.0900709
27.44 0.133733
27.61 0.0789976
27.78 0.178822
27.95 0.218846
28.12 0.135623
28.29 0.0914478
28.46 0.0791433
28.63 0.0535468
28.8 0.126401
28.97 0.208066
29.14 0.225486
29.31 0.190581
29.48 0.109268
29.65 0.0935638
29.82 0.0879804
29.99 0.0661776
30.16 0.0741223
30.33 0.148379
30.5 0.311226
30.67 0.746758
30.84 0.996018
31.01 0.686246
31.18 0.309851
31.35 0.192004
31.52 0.0834968
31.69 0.0284165
31.86 0.0253951
32.03 0.0660735
32.2 0.0765263
32.37 0.133954
32.54 0.103564
32.71 0.0128314
32.88 0.0290204
33.05 -0.00638348
33.22 -0.000987773
33.39 0.0292991
33.56 0.0607719
33.73 0.0617335
33.9 0.0541526
34.07 0.0370971
34.24 0.0910107
34.41 0.0415864
34.58 0.0293899
34.75 0.080535
34.92 0.083519
35.09 0.103773
35.26 0.114016
35.43 0.258757
35.6 0.365369
35.77 0.260959
35.94 0.198163
36.11 0.112167
36.28 0.060923
36.45 0.051116
36.62 0.0379253
36.79 0.0804996
36.96 0.086959
37.13 0.0809986
37.3 0.066021
37.47 0.0960939
37.64 0.0229345
37.81 0.00373338
37.98 0.00772088
38.15 0.00446865
38.32 0.00536136
38.49 -0.00769444
38.66 -0.00424267
38.83 0.036154
39 0.0544802
39.17 0.0256197
39.34 -0.00206331
39.51 -0.00480246
39.68 0.00446581
39.85 -0.00745381
40.02 0.0334799
40.19 0.0783365
40.36 0.0494791
40.53 0.0357219
40.7 0.0315518
40.87 0.0109309
41.04 0.00969176
41.21 0.0045062
41.38 -0.0011225
41.55 -0.00504218
41.72 -0.0121048
41.89 -0.0173913
42.06 -0.00855279
42.23 -0.0197931
42.4 -0.0145569
42.57 0.0193784
42.74 0.0168985
42.91 0.0844139
43.08 0.0879753
43.25 0.344968
43.42 0.806147
43.59 0.905147
43.76 0.432923
43.93 0.178857
44.1 0.149031
44.27 0.124858
44.44 0.092528
44.61 0.0164618
44.78 0.00947364
44.95 0.0364403
45.12 0.0154345
45.29 0.0295144
45.46 0.000840625
45.63 0.0208193
45.8 0.0135048
45.97 0.119441
46.14 0.224172
46.31 0.240104
46.48 0.0793336
46.65 0.0580575
46.82 0.110386
46.99 0.151422
47.16 0.205179
47.33 0.218924
47.5 0.20107
47.67 0.241469
47.84 0.187317
48.01 0.190003
48.18 0.123127
48.35 0.0657357
48.52 0.0365103
48.69 0.0386459
48.86 0.0242025
49.03 0.019364
49.2 0.0266236
49.37 0.0382067
49.54 -0.0082707
49.71 -0.00460624
49.88 -0.00654425
50.05 0.00135172
50.22 -0.00909602
50.39 0.00115229
50.56 0.0199957
50.73 0.0852607
50.9 0.152126
51.07 0.168963
51.24 0.109895
51.41 0.0648372
51.58 0.0306519
51.75 0.023965
51.92 0.0221856
52.09 0.0102769
52.26 0.00099441
52.43 0.00551064
52.6 0.0217837
52.77 0.0334044
52.94 0.0343452
53.11 -0.000705852
53.28 0.00533036
53.45 -0.0201796
53.62 0.00481562
53.79 -0.0192095
53.96 0.00189341
54.13 0.0214974
54.3 0.0252792
54.47 0.053601
54.64 0.0625529
54.81 0.030093
54.98 0.0464187
55.15 0.0352229
55.32 0.0115266
55.49 0.0248181
55.66 0.0318039
55.83 0.017314
56 0.00592701
56.17 -0.013155
56.34 0.000712206
56.51 -0.00274959
56.68 0.0111072
56.85 0.0524697
57.02 0.054736
57.19 0.122647
57.36 0.15997
57.53 0.16967
57.7 0.140475
57.87 0.100787
58.04 0.0546183
58.21 0.0346985
58.38 0.0287266
58.55 0.0152113
58.72 0.0313541
58.89 0.0462289
59.06 0.0100697
59.23 0.0157226
59.4 -0.00260864
59.57 -0.00779386
59.74 0.000482243
59.91 -0.00453287
60.08 -0.00861058
60.25 0.00243773
60.42 0.0226034
60.59 0.0178779
60.76 -0.0138327
60.93 0.00264971
61.1 -0.00645874
61.27 -0.0133952
61.44 0.00751762
61.61 0.019468
61.78 0.012013
61.95 0.00393233
62.12 0.00392177
62.29 0.0253107
62.46 0.0110049
62.63 0.0048499
62.8 0.0130492
62.97 0.0147147
63.14 0.0452405
63.31 0.0467388
63.48 0.039114
63.65 0.0368782
63.82 0.0108223
63.99 0.011318
64.16 0.0100563
64.33 0.0235582
64.5 0.0109124
64.67 0.00538091
64.84 0.00349603
65.01 0.00240921
65.18 -0.0178686
65.35 0.00239007
65.52 -0.00992226
65.69 -0.00158915
65.745 -0.0245092