Folder: rapid/data/xrd/xy

Note: README.md
# Rapid
This repo contains code, data and jupyter notebook related to RAPID.

Click this button to access the jupyter notebook without downloading/installing [![Binder](https://mybinder.org/badge_logo.svg)](https://mybinder.org/v2/gh/darkreactions/rapid/master?filepath=RAPID.ipynb)

## Repository contents
The following sections indicate the folders which contain code and related data

### Jupyter notebooks

1. RAPID.ipynb - Notebook containing all visualizations
2. Visualization and Statistical Analysis.ipynb - Initial analysis notebook
3. Perovskite learning curve.ipynb - ML code and visualizations notebook

### Raw data
All raw data files are located in the ```data``` folder

1. cifs - Contains the Crystallographic Information Files
2. images - Contains side vial images of each experiment performed
3. xrd/xy - Contains xy files for XRD data
4. 0042.perovskitedata_RAPID.csv - Escalate generated data file 
5. image_list.json - Keeps track of all image files in the image folder
6. ml_data.pkl - Python pickle file containing ML results
7. inventory.csv - Chemical inventory data
8. organic_inchikey.csv - Inchi keys and chemical names
9. s_spaces.json - Co-ordinates of state space for each amine

### Scripts
The following python scripts are used in the RAPID.ipynb notebook to generate visualizations

1. plots.py - Generates the reaction outcomes 3D plot widget
2. xrd_plot.py - Generates the xrd plot widget
3. ml_section.py - Generates machine learning outcomes widget
4. cif_plots.py - Generates the cif plot widget. Note that jsmol is used to create the widget

File: 1,4_Benzene_Diammonium_Iodide.lbl_rescaled.xy
# Processed xy data with Haverford two-theta converted to LBL scale
two_theta,intensity
5.81234,5.0
6.06814,3.0
6.32395,4.0
6.57977,7.0
6.8356,6.0
7.09144,4.0
7.34728,7.0
7.60314,7.0
7.85901,5.0
8.11488,4.0
8.37077,3.0
8.62667,5.0
8.88257,8.0
9.1385,5.0
9.39443,3.0
9.65037,8.0
9.90633,3.0
10.1623,4.0
10.4183,10.0
10.6743,26.0
10.9303,6.0
11.1863,3.0
11.4424,6.0
11.6984,3.0
11.9545,3.0
12.2106,7.0
12.4667,4.0
12.7228,3.0
12.9789,3.0
13.2351,1.0
13.4912,4.0
13.7474,3.0
14.0036,6.0
14.2599,6.0
14.5161,2.0
14.7724,3.0
15.0287,5.0
15.285,1.0
15.5413,4.0
15.7976,5.0
16.054,5.0
16.3104,0.0
16.5668,2.0
16.8232,2.0
17.0797,3.0
17.3361,3.0
17.5926,6.0
17.8491,7.0
18.1057,2.0
18.3623,3.0
18.6188,5.0
18.8755,5.0
19.1321,3.0
19.3888,5.0
19.6455,1.0
19.9022,5.0
20.1589,4.0
20.4157,2.0
20.6725,5.0
20.9294,5.0
21.1862,11.0
21.4431,14.0
21.7,1.0
21.957,1.0
22.2139,3.0
22.4709,3.0
22.728,1.0
22.9851,4.0
23.2422,5.0
23.4993,3.0
23.7564,2.0
24.0136,4.0
24.2709,3.0
24.5281,3.0
24.7854,4.0
25.0428,5.0
25.3001,1.0
25.5575,7.0
25.815,26.0
26.0724,166.0
26.3299,13.0
26.5875,3.0
26.8451,4.0
27.1027,3.0
27.3603,2.0
27.618,3.0
27.8758,2.0
28.1335,0.0
28.3913,3.0
28.6492,4.0
28.9071,12.0
29.165,89.0
29.423,33.0
29.681,8.0
29.9391,1.0
30.1972,4.0
30.4553,3.0
30.7135,7.0
30.9717,24.0
31.23,24.0
31.4883,4.0
31.7467,10.0
32.0051,55.0
32.2635,10.0
32.522,3.0
32.7806,4.0
33.0392,7.0
33.2978,6.0
33.5565,19.0
33.8153,65.0
34.0741,7.0
34.3329,4.0
34.5918,3.0
34.8507,7.0
35.1097,3.0
35.3688,3.0
35.6279,3.0
35.887,1.0
36.1462,8.0
36.4055,20.0
36.6648,3.0
36.9241,1.0
37.1836,0.0
37.443,4.0
37.7026,1.0
37.9621,2.0
38.2218,1.0
38.4815,1.0
38.7412,3.0
39.0011,4.0
39.2609,4.0
39.5209,7.0
39.7809,1.0
40.0409,2.0
40.3011,0.0
40.5612,2.0
40.8215,2.0
41.0818,4.0
41.3421,4.0
41.6026,68.0
41.8631,18.0
42.1236,4.0
42.3843,2.0
42.645,4.0
42.9057,20.0
43.1665,48.0
43.4274,8.0
43.6884,41.0
43.9494,75.0
44.2105,4.0
44.4717,7.0
44.733,2.0
44.9943,1.0
45.2557,4.0
45.5171,2.0
45.7786,3.0
46.0403,3.0
46.3019,3.0
46.5637,2.0
46.8255,4.0
47.0874,17.0
47.3494,15.0
47.6115,3.0
47.8736,2.0
48.1358,4.0
48.3981,2.0
48.6605,4.0
48.923,5.0
49.1855,3.0
49.4481,3.0
49.7108,53.0
49.9736,37.0
50.2365,4.0
50.4994,4.0
50.7625,2.0
51.0256,3.0
51.2888,3.0
51.5521,4.0
51.8155,4.0
52.079,4.0
52.3426,3.0
52.6062,7.0
52.87,26.0
53.1338,9.0
53.3978,63.0
53.6618,11.0
53.9259,7.0
54.1901,4.0
54.4545,18.0
54.7189,43.0
54.9834,5.0
55.248,4.0
55.5127,3.0
55.7775,5.0
56.0424,5.0
56.3074,4.0
56.5725,3.0
56.8377,2.0
57.103,3.0
57.3685,1.0
57.634,2.0
57.8996,4.0
58.1654,4.0
58.4312,2.0
58.6972,5.0
58.9632,2.0
59.2294,1.0
59.4957,4.0
59.7621,3.0
60.0286,4.0
60.2952,13.0
60.562,8.0
60.8288,4.0
61.0958,4.0
61.3629,31.0
61.6301,15.0
61.8974,4.0
62.1649,4.0
62.4325,3.0
62.7002,2.0
62.968,2.0
63.2359,2.0
63.504,2.0
63.7722,4.0
64.0405,4.0
64.309,8.0
64.5776,30.0
64.8463,16.0
65.1151,4.0
65.3841,3.0
65.6532,4.0
65.9225,4.0
66.1919,3.0
66.4614,4.0
66.7311,11.0
67.0009,12.0
67.2708,6.0
67.5409,11.0
67.8112,5.0
68.0815,5.0
68.3521,31.0
68.6227,11.0
68.8935,4.0
69.1645,6.0
69.4356,10.0
69.7069,20.0
69.9783,25.0
70.2499,11.0
70.5216,2.0
70.7935,6.0
71.0656,4.0
71.3378,6.0
71.6102,4.0
71.8827,3.0
72.1554,4.0
72.4283,6.0
72.7013,3.0
72.9745,3.0
73.2479,1.0
73.5214,2.0
73.7951,1.0
74.069,7.0
74.3431,14.0
74.6173,10.0
74.8917,2.0
75.1663,3.0
75.4411,2.0
75.7161,1.0
75.9912,6.0
76.2665,3.0
76.5421,6.0
76.8178,8.0
77.0937,9.0
77.3698,9.0
77.6461,6.0
77.9226,3.0
78.1992,4.0
78.4761,4.0
78.7532,2.0
79.0305,7.0
79.308,3.0
79.5857,12.0
79.8636,20.0
80.1417,8.0
80.4201,5.0
80.6986,4.0
80.9774,3.0
81.2564,3.0
81.5356,6.0
81.815,22.0
82.0947,10.0
82.3746,7.0
82.6547,3.0
82.935,4.0
83.2156,3.0
83.4964,3.0
83.6241,4.0

File: 2-Pyrrolidin-1-ium-1-ylethylammonium_Bromide.lbl_rescaled.xy
# Processed xy data with Haverford two-theta converted to LBL scale
two_theta,intensity
5.81234,6.0
6.06814,9.0
6.32395,14.0
6.57977,8.0
6.8356,7.0
7.09144,85.0
7.34728,15.0
7.60314,7.0
7.85901,7.0
8.11488,5.0
8.37077,5.0
8.62667,8.0
8.88257,9.0
9.1385,1.0
9.39443,4.0
9.65037,4.0
9.90633,4.0
10.1623,2.0
10.4183,6.0
10.6743,5.0
10.9303,5.0
11.1863,9.0
11.4424,14.0
11.6984,25.0
11.9545,14.0
12.2106,8.0
12.4667,7.0
12.7228,4.0
12.9789,4.0
13.2351,5.0
13.4912,3.0
13.7474,6.0
14.0036,3.0
14.2599,5.0
14.5161,5.0
14.7724,5.0
15.0287,6.0
15.285,2.0
15.5413,6.0
15.7976,10.0
16.054,6.0
16.3104,5.0
16.5668,4.0
16.8232,5.0
17.0797,4.0
17.3361,11.0
17.5926,5.0
17.8491,4.0
18.1057,6.0
18.3623,4.0
18.6188,11.0
18.8755,11.0
19.1321,8.0
19.3888,3.0
19.6455,4.0
19.9022,4.0
20.1589,6.0
20.4157,6.0
20.6725,45.0
20.9294,21.0
21.1862,3.0
21.4431,5.0
21.7,5.0
21.957,4.0
22.2139,9.0
22.4709,4.0
22.728,21.0
22.9851,21.0
23.2422,13.0
23.4993,13.0
23.7564,4.0
24.0136,6.0
24.2709,8.0
24.5281,19.0
24.7854,8.0
25.0428,11.0
25.3001,8.0
25.5575,18.0
25.815,3.0
26.0724,14.0
26.3299,10.0
26.5875,32.0
26.8451,4.0
27.1027,4.0
27.3603,30.0
27.618,8.0
27.8758,3.0
28.1335,4.0
28.3913,6.0
28.6492,6.0
28.9071,12.0
29.165,30.0
29.423,143.0
29.681,31.0
29.9391,86.0
30.1972,9.0
30.4553,13.0
30.7135,14.0
30.9717,4.0
31.23,12.0
31.4883,13.0
31.7467,50.0
32.0051,29.0
32.2635,17.0
32.522,9.0
32.7806,7.0
33.0392,5.0
33.2978,28.0
33.5565,14.0
33.8153,37.0
34.0741,55.0
34.3329,16.0
34.5918,18.0
34.8507,15.0
35.1097,8.0
35.3688,14.0
35.6279,4.0
35.887,12.0
36.1462,4.0
36.4055,4.0
36.6648,7.0
36.9241,10.0
37.1836,7.0
37.443,22.0
37.7026,4.0
37.9621,6.0
38.2218,6.0
38.4815,1.0
38.7412,6.0
39.0011,12.0
39.2609,9.0
39.5209,4.0
39.7809,6.0
40.0409,8.0
40.3011,2.0
40.5612,7.0
40.8215,10.0
41.0818,8.0
41.3421,12.0
41.6026,8.0
41.8631,10.0
42.1236,4.0
42.3843,84.0
42.645,25.0
42.9057,31.0
43.1665,36.0
43.4274,8.0
43.6884,6.0
43.9494,4.0
44.2105,9.0
44.4717,26.0
44.733,15.0
44.9943,7.0
45.2557,7.0
45.5171,9.0
45.7786,13.0
46.0403,13.0
46.3019,61.0
46.5637,12.0
46.8255,7.0
47.0874,1.0
47.3494,5.0
47.6115,6.0
47.8736,16.0
48.1358,15.0
48.3981,9.0
48.6605,9.0
48.923,9.0
49.1855,6.0
49.4481,9.0
49.7108,9.0
49.9736,6.0
50.2365,6.0
50.4994,9.0
50.7625,8.0
51.0256,12.0
51.2888,16.0
51.5521,11.0
51.8155,11.0
52.079,6.0
52.3426,7.0
52.6062,5.0
52.87,10.0
53.1338,30.0
53.3978,40.0
53.6618,11.0
53.9259,8.0
54.1901,11.0
54.4545,6.0
54.7189,7.0
54.9834,17.0
55.248,3.0
55.5127,5.0
55.7775,6.0
56.0424,9.0
56.3074,9.0
56.5725,8.0
56.8377,9.0
57.103,10.0
57.3685,15.0
57.634,6.0
57.8996,8.0
58.1654,18.0
58.4312,15.0
58.6972,13.0
58.9632,16.0
59.2294,26.0
59.4957,9.0
59.7621,10.0
60.0286,6.0
60.2952,10.0
60.562,8.0
60.8288,19.0
61.0958,21.0
61.3629,9.0
61.6301,15.0
61.8974,15.0
62.1649,8.0
62.4325,7.0
62.7002,8.0
62.968,8.0
63.2359,15.0
63.504,5.0
63.7722,6.0
64.0405,3.0
64.309,7.0
64.5776,8.0
64.8463,6.0
65.1151,13.0
65.3841,8.0
65.6532,9.0
65.9225,9.0
66.1919,11.0
66.4614,14.0
66.7311,5.0
67.0009,7.0
67.2708,7.0
67.5409,5.0
67.8112,12.0
68.0815,5.0
68.3521,7.0
68.6227,4.0
68.8935,11.0
69.1645,8.0
69.4356,3.0
69.7069,6.0
69.9783,9.0
70.2499,4.0
70.5216,11.0
70.7935,11.0
71.0656,8.0
71.3378,11.0
71.6102,13.0
71.8827,10.0
72.1554,14.0
72.4283,12.0
72.7013,5.0
72.9745,10.0
73.2479,14.0
73.5214,6.0
73.7951,8.0
74.069,13.0
74.3431,8.0
74.6173,7.0
74.8917,9.0
75.1663,12.0
75.4411,9.0
75.7161,6.0
75.9912,11.0
76.2665,5.0
76.5421,10.0
76.8178,3.0
77.0937,13.0
77.3698,10.0
77.6461,3.0
77.9226,9.0
78.1992,7.0
78.4761,21.0
78.7532,11.0
79.0305,2.0
79.308,5.0
79.5857,1.0
79.8636,5.0
80.1417,8.0
80.4201,16.0
80.6986,9.0
80.9774,9.0
81.2564,8.0
81.5356,12.0
81.815,7.0
82.0947,6.0
82.3746,5.0
82.6547,8.0
82.935,5.0
83.2156,6.0
83.4964,7.0
83.6241,6.0

File: 4-Fluoro-Benzylammonium_Iodide.lbl_rescaled.xy
# Processed xy data with Haverford two-theta converted to LBL scale
two_theta,intensity
5.81234,9.0
6.06814,13.0
6.32395,20.0
6.57977,45.0
6.8356,338.0
7.09144,34.0
7.34728,12.0
7.60314,11.0
7.85901,6.0
8.11488,11.0
8.37077,11.0
8.62667,8.0
8.88257,10.0
9.1385,8.0
9.39443,7.0
9.65037,7.0
9.90633,8.0
10.1623,11.0
10.4183,8.0
10.6743,11.0
10.9303,12.0
11.1863,10.0
11.4424,7.0
11.6984,9.0
11.9545,11.0
12.2106,5.0
12.4667,9.0
12.7228,9.0
12.9789,13.0
13.2351,6.0
13.4912,9.0
13.7474,22.0
14.0036,76.0
14.2599,14.0
14.5161,14.0
14.7724,10.0
15.0287,9.0
15.285,11.0
15.5413,14.0
15.7976,16.0
16.054,12.0
16.3104,17.0
16.5668,17.0
16.8232,19.0
17.0797,17.0
17.3361,19.0
17.5926,18.0
17.8491,20.0
18.1057,13.0
18.3623,16.0
18.6188,19.0
18.8755,12.0
19.1321,30.0
19.3888,19.0
19.6455,22.0
19.9022,23.0
20.1589,23.0
20.4157,24.0
20.6725,36.0
20.9294,99.0
21.1862,42.0
21.4431,33.0
21.7,29.0
21.957,21.0
22.2139,32.0
22.4709,38.0
22.728,55.0
22.9851,30.0
23.2422,30.0
23.4993,35.0
23.7564,39.0
24.0136,71.0
24.2709,36.0
24.5281,40.0
24.7854,41.0
25.0428,46.0
25.3001,42.0
25.5575,32.0
25.815,43.0
26.0724,58.0
26.3299,89.0
26.5875,56.0
26.8451,51.0
27.1027,48.0
27.3603,50.0
27.618,49.0
27.8758,59.0
28.1335,129.0
28.3913,57.0
28.6492,37.0
28.9071,47.0
29.165,80.0
29.423,48.0
29.681,57.0
29.9391,64.0
30.1972,51.0
30.4553,50.0
30.7135,46.0
30.9717,37.0
31.23,42.0
31.4883,52.0
31.7467,55.0
32.0051,48.0
32.2635,72.0
32.522,64.0
32.7806,54.0
33.0392,46.0
33.2978,53.0
33.5565,43.0
33.8153,39.0
34.0741,37.0
34.3329,46.0
34.5918,38.0
34.8507,45.0
35.1097,48.0
35.3688,119.0
35.6279,54.0
35.887,32.0
36.1462,33.0
36.4055,38.0
36.6648,41.0
36.9241,49.0
37.1836,38.0
37.443,38.0
37.7026,58.0
37.9621,44.0
38.2218,45.0
38.4815,58.0
38.7412,27.0
39.0011,34.0
39.2609,31.0
39.5209,25.0
39.7809,28.0
40.0409,33.0
40.3011,26.0
40.5612,30.0
40.8215,27.0
41.0818,31.0
41.3421,37.0
41.6026,24.0
41.8631,32.0
42.1236,22.0
42.3843,24.0
42.645,31.0
42.9057,39.0
43.1665,31.0
43.4274,21.0
43.6884,25.0
43.9494,24.0
44.2105,20.0
44.4717,22.0
44.733,19.0
44.9943,22.0
45.2557,20.0
45.5171,18.0
45.7786,26.0
46.0403,28.0
46.3019,20.0
46.5637,18.0
46.8255,24.0
47.0874,16.0
47.3494,22.0
47.6115,29.0
47.8736,22.0
48.1358,20.0
48.3981,19.0
48.6605,17.0
48.923,28.0
49.1855,17.0
49.4481,13.0
49.7108,25.0
49.9736,18.0
50.2365,23.0
50.4994,23.0
50.7625,25.0
51.0256,17.0
51.2888,18.0
51.5521,17.0
51.8155,20.0
52.079,21.0
52.3426,20.0
52.6062,17.0
52.87,23.0
53.1338,36.0
53.3978,19.0
53.6618,21.0
53.9259,21.0
54.1901,28.0
54.4545,19.0
54.7189,20.0
54.9834,16.0
55.248,19.0
55.5127,21.0
55.7775,20.0
56.0424,19.0
56.3074,16.0
56.5725,24.0
56.8377,16.0
57.103,23.0
57.3685,24.0
57.634,17.0
57.8996,19.0
58.1654,17.0
58.4312,21.0
58.6972,18.0
58.9632,15.0
59.2294,13.0
59.4957,19.0
59.7621,13.0
60.0286,18.0
60.2952,17.0
60.562,16.0
60.8288,29.0
61.0958,17.0
61.3629,11.0
61.6301,20.0
61.8974,20.0
62.1649,16.0
62.4325,16.0
62.7002,16.0
62.968,19.0
63.2359,17.0
63.504,14.0
63.7722,19.0
64.0405,16.0
64.309,15.0
64.5776,17.0
64.8463,17.0
65.1151,17.0
65.3841,22.0
65.6532,19.0
65.9225,12.0
66.1919,16.0
66.4614,19.0
66.7311,18.0
67.0009,19.0
67.2708,20.0
67.5409,16.0
67.8112,24.0
68.0815,23.0
68.3521,19.0
68.6227,22.0
68.8935,19.0
69.1645,18.0
69.4356,10.0
69.7069,16.0
69.9783,14.0
70.2499,22.0
70.5216,21.0
70.7935,13.0
71.0656,17.0
71.3378,12.0
71.6102,16.0
71.8827,11.0
72.1554,15.0
72.4283,18.0
72.7013,22.0
72.9745,20.0
73.2479,20.0
73.5214,20.0
73.7951,18.0
74.069,16.0
74.3431,17.0
74.6173,16.0
74.8917,27.0
75.1663,16.0
75.4411,13.0
75.7161,17.0
75.9912,19.0
76.2665,20.0
76.5421,11.0
76.8178,17.0
77.0937,13.0
77.3698,22.0
77.6461,18.0
77.9226,24.0
78.1992,18.0
78.4761,16.0
78.7532,23.0
79.0305,16.0
79.308,18.0
79.5857,14.0
79.8636,17.0
80.1417,18.0
80.4201,9.0
80.6986,17.0
80.9774,24.0
81.2564,14.0
81.5356,11.0
81.815,12.0
82.0947,15.0
82.3746,18.0
82.6547,13.0
82.935,19.0
83.2156,11.0
83.4964,7.0
83.6241,15.0

File: 4_Trifluromethylbenzylammonium_Iodide.lbl_rescaled.xy
# Processed xy data with Haverford two-theta converted to LBL scale
two_theta,intensity
5.81234,336.0
6.06814,26.0
6.32395,8.0
6.57977,6.0
6.8356,8.0
7.09144,9.0
7.34728,3.0
7.60314,6.0
7.85901,6.0
8.11488,8.0
8.37077,7.0
8.62667,9.0
8.88257,7.0
9.1385,6.0
9.39443,8.0
9.65037,5.0
9.90633,5.0
10.1623,10.0
10.4183,5.0
10.6743,8.0
10.9303,5.0
11.1863,9.0
11.4424,20.0
11.6984,169.0
11.9545,180.0
12.2106,8.0
12.4667,6.0
12.7228,6.0
12.9789,4.0
13.2351,6.0
13.4912,7.0
13.7474,5.0
14.0036,8.0
14.2599,5.0
14.5161,7.0
14.7724,4.0
15.0287,4.0
15.285,6.0
15.5413,4.0
15.7976,2.0
16.054,5.0
16.3104,2.0
16.5668,6.0
16.8232,3.0
17.0797,2.0
17.3361,1.0
17.5926,2.0
17.8491,23.0
18.1057,4.0
18.3623,4.0
18.6188,5.0
18.8755,4.0
19.1321,6.0
19.3888,2.0
19.6455,4.0
19.9022,5.0
20.1589,15.0
20.4157,4.0
20.6725,3.0
20.9294,4.0
21.1862,5.0
21.4431,3.0
21.7,3.0
21.957,4.0
22.2139,5.0
22.4709,10.0
22.728,5.0
22.9851,7.0
23.2422,13.0
23.4993,20.0
23.7564,349.0
24.0136,36.0
24.2709,13.0
24.5281,8.0
24.7854,4.0
25.0428,6.0
25.3001,2.0
25.5575,6.0
25.815,13.0
26.0724,4.0
26.3299,5.0
26.5875,5.0
26.8451,6.0
27.1027,4.0
27.3603,5.0
27.618,3.0
27.8758,1.0
28.1335,2.0
28.3913,11.0
28.6492,11.0
28.9071,20.0
29.165,15.0
29.423,36.0
29.681,111.0
29.9391,1644.0
30.1972,44.0
30.4553,17.0
30.7135,11.0
30.9717,13.0
31.23,9.0
31.4883,20.0
31.7467,14.0
32.0051,9.0
32.2635,7.0
32.522,6.0
32.7806,3.0
33.0392,5.0
33.2978,6.0
33.5565,5.0
33.8153,16.0
34.0741,11.0
34.3329,9.0
34.5918,8.0
34.8507,7.0
35.1097,9.0
35.3688,16.0
35.6279,44.0
35.887,256.0
36.1462,1544.0
36.4055,46.0
36.6648,12.0
36.9241,9.0
37.1836,14.0
37.443,8.0
37.7026,8.0
37.9621,7.0
38.2218,6.0
38.4815,2.0
38.7412,7.0
39.0011,7.0
39.2609,8.0
39.5209,6.0
39.7809,4.0
40.0409,8.0
40.3011,2.0
40.5612,9.0
40.8215,4.0
41.0818,4.0
41.3421,7.0
41.6026,5.0
41.8631,13.0
42.1236,78.0
42.3843,735.0
42.645,27.0
42.9057,17.0
43.1665,10.0
43.4274,7.0
43.6884,6.0
43.9494,5.0
44.2105,7.0
44.4717,7.0
44.733,4.0
44.9943,5.0
45.2557,3.0
45.5171,6.0
45.7786,8.0
46.0403,6.0
46.3019,6.0
46.5637,6.0
46.8255,5.0
47.0874,4.0
47.3494,4.0
47.6115,5.0
47.8736,3.0
48.1358,6.0
48.3981,9.0
48.6605,101.0
48.923,103.0
49.1855,5.0
49.4481,10.0
49.7108,11.0
49.9736,4.0
50.2365,5.0
50.4994,4.0
50.7625,3.0
51.0256,3.0
51.2888,4.0
51.5521,5.0
51.8155,16.0
52.079,2.0
52.3426,4.0
52.6062,3.0
52.87,3.0
53.1338,2.0
53.3978,3.0
53.6618,6.0
53.9259,4.0
54.1901,4.0
54.4545,3.0
54.7189,3.0
54.9834,3.0
55.248,7.0
55.5127,9.0
55.7775,6.0
56.0424,6.0
56.3074,5.0
56.5725,3.0
56.8377,4.0
57.103,1.0
57.3685,3.0
57.634,5.0
57.8996,15.0
58.1654,25.0
58.4312,4.0
58.6972,3.0
58.9632,6.0
59.2294,5.0
59.4957,7.0
59.7621,3.0
60.0286,5.0
60.2952,4.0
60.562,5.0
60.8288,5.0
61.0958,9.0
61.3629,6.0
61.6301,2.0
61.8974,5.0
62.1649,14.0
62.4325,1.0
62.7002,1.0
62.968,5.0
63.2359,6.0
63.504,6.0
63.7722,5.0
64.0405,4.0
64.309,9.0
64.5776,22.0
64.8463,21.0
65.1151,6.0
65.3841,6.0
65.6532,5.0
65.9225,9.0
66.1919,3.0
66.4614,5.0
66.7311,2.0
67.0009,3.0
67.2708,8.0
67.5409,8.0
67.8112,3.0
68.0815,5.0
68.3521,7.0
68.6227,3.0
68.8935,7.0
69.1645,49.0
69.4356,23.0
69.7069,9.0
69.9783,6.0
70.2499,5.0
70.5216,6.0
70.7935,13.0
71.0656,5.0
71.3378,7.0
71.6102,8.0
71.8827,9.0
72.1554,5.0
72.4283,6.0
72.7013,6.0
72.9745,8.0
73.2479,11.0
73.5214,6.0
73.7951,5.0
74.069,7.0
74.3431,7.0
74.6173,4.0
74.8917,7.0
75.1663,6.0
75.4411,6.0
75.7161,4.0
75.9912,7.0
76.2665,16.0
76.5421,156.0
76.8178,77.0
77.0937,12.0
77.3698,11.0
77.6461,8.0
77.9226,11.0
78.1992,6.0
78.4761,4.0
78.7532,11.0
79.0305,12.0
79.308,8.0
79.5857,6.0
79.8636,10.0
80.1417,7.0
80.4201,11.0
80.6986,5.0
80.9774,6.0
81.2564,6.0
81.5356,3.0
81.815,8.0
82.0947,5.0
82.3746,7.0
82.6547,8.0
82.935,5.0
83.2156,5.0
83.4964,4.0
83.6241,6.0

File: 2018-06-26T16_01_41.558851+00_00_LBL.xy
'Id: "" Comment: "Integrate frame EtNH3PbI30_00_001.gfrmwith cursor Wedge Cursor #3" Operator: "UC Berkeley" Anode: "Co" Scantype: "TwoTheta" TimePerStep: "300"
14.48 -0.030146
14.675 -0.0193601
14.87 0.0395735
15.065 0.0503907
15.26 0.0662644
15.455 0.0116404
15.65 0.0539973
15.845 0.103263
16.04 0.0529928
16.235 0.0542423
16.43 0.0548327
16.625 0.0355623
16.82 0.0343525
17.015 0.0316225
17.21 0.138402
17.405 0.0365479
17.6 0.0597442
17.795 0.0763376
17.99 0.0346848
18.185 0.0396928
18.38 0.023615
18.575 0.0447815
18.77 0.0447326
18.965 0.0502893
19.16 0.00746969
19.355 0.102728
19.55 0.0862179
19.745 0.0389964
19.94 0.0499885
20.135 0.088993
20.33 0.031538
20.525 0.0971619
20.72 0.0505501
20.915 0.0923912
21.11 0.0404581
21.305 0.0650798
21.5 0.0638651
21.695 0.0810492
21.89 0.0250575
22.085 0.0601689
22.28 0.139507
22.475 0.036039
22.67 0.0683903
22.865 0.085385
23.06 0.0580101
23.255 0.131504
23.45 0.0675084
23.645 0.236755
23.84 0.0634225
24.035 0.0950336
24.23 0.150148
24.425 0.141711
24.62 0.149177
24.815 0.159169
25.01 0.189595
25.205 0.312876
25.4 0.269338
25.595 0.356088
25.79 0.831359
25.985 2.14033
26.18 3.16367
26.375 1.29654
26.57 0.371265
26.765 0.174306
26.96 0.11205
27.155 0.0749823
27.35 0.0928213
27.545 0.0666169
27.74 0.0180137
27.935 0.0577607
28.13 0.0204837
28.325 0.0255812
28.52 0.0376106
28.715 0.0178811
28.91 0.0568356
29.105 0.0562912
29.3 -0.000878944
29.495 0.00853344
29.69 0.0435581
29.885 0.0506929
30.08 0.353932
30.275 0.305067
30.47 0.0450793
30.665 0.0106829
30.86 -0.00610043
31.055 0.0206658
31.25 0.0410675
31.445 0.0549715
31.64 0.0207201
31.835 -0.0141915
32.03 0.0220867
32.225 0.0314708
32.42 0.0300342
32.615 0.0348737
32.81 0.01121
33.005 0.0331659
33.2 -0.000698681
33.395 0.0160944
33.59 0.00150816
33.785 0.0184918
33.98 0.00406761
34.175 0.0170458
34.37 0.00498182
34.565 0.0469704
34.76 0.182485
34.955 0.166722
35.15 0.0112748
35.345 0.0305915
35.54 0.00448333
35.735 -0.0109653
35.93 -0.018077
36.125 0.0477255
36.32 0.129166
36.515 0.0898371
36.71 0.0346721
36.905 0.00432931
37.1 0.0306389
37.295 0.102027
37.49 0.38929
37.685 0.559427
37.88 0.163628
38.075 0.0425454
38.27 0.0292271
38.465 0.0625758
38.66 0.0780285
38.855 0.142228
39.05 0.294729
39.245 0.419147
39.44 0.561687
39.635 0.568279
39.83 0.388347
40.025 0.218191
40.22 0.101279
40.415 0.0621402
40.61 0.0550529
40.805 0.071646
41 0.0291558
41.195 0.010176
41.39 0.0574241
41.585 0.00417572
41.78 0.0288593
41.975 0.0213072
42.17 0.0114116
42.365 0.0125023
42.56 0.0284644
42.755 0.0204094
42.95 0.00967277
43.145 0.00342791
43.34 0.0377388
43.535 -0.00738532
43.73 0.0402891
43.925 0.00885087
44.12 0.0386283
44.315 0.0253433
44.51 0.0146823
44.705 0.071526
44.9 0.0949853
45.095 0.0384039
45.29 0.022413
45.485 -0.00237266
45.68 0.0171815
45.875 0.0294621
46.07 0.0572169
46.265 0.0183217
46.46 0.061929
46.655 0.016383
46.85 0.00592635
47.045 0.00556335
47.24 -6.62755e-05
47.435 0.034051
47.63 0.0483157
47.825 0.0311265
48.02 0.0275398
48.215 0.10879
48.41 0.125136
48.605 0.0440529
48.8 -0.00379693
48.995 0.0459254
49.19 0.0501998
49.385 0.0548558
49.58 0.022447
49.775 0.00642068
49.97 0.00523961
50.165 0.0154046
50.36 0.115871
50.555 0.0942334
50.75 0.0124142
50.945 -0.0190968
51.14 -0.00611079
51.335 0.0143103
51.53 0.0118767
51.725 -0.00144499
51.92 0.0442979
52.115 0.058029
52.31 0.0388605
52.505 0.0083063
52.7 0.00945581
52.895 -0.0133895
53.09 -0.00938655
53.285 0.0108872
53.48 0.00261771
53.675 0.0412965
53.87 0.113092
54.065 0.0706178
54.26 0.0287464
54.455 0.0201308
54.65 0.0228437
54.845 0.0317135
55.04 0.0738637
55.235 0.149964
55.43 0.174191
55.625 0.186009
55.82 0.151707
56.015 0.0744443
56.21 0.0311844
56.405 0.0032104
56.6 0.0213562
56.795 -0.00125602
56.99 0.0143424
57.185 0.0223352
57.38 0.0178806
57.575 0.0220934
57.77 0.039937
57.965 0.0433333
58.16 0.0596626
58.355 0.0369531
58.55 0.0112259
58.745 0.0104055
58.94 0.0120483
59.135 0.00103908
59.33 0.0216254
59.525 0.00589481
59.72 0.0281333
59.915 0.0105851
60.11 0.0229128
60.305 0.00366996
60.5 0.0101475
60.695 0.00707106
60.89 0.0236199
61.085 0.0235009
61.28 0.0260815
61.475 0.0374432
61.67 0.0490534
61.865 0.0900695
62.06 0.0931385
62.255 0.12073
62.45 0.139147
62.645 0.115033
62.84 0.178907
63.035 0.148932
63.23 0.0738969
63.425 0.0325719
63.62 0.0244123
63.815 0.0208121
64.01 0.0219562
64.205 0.00505976
64.4 0.00603354
64.595 0.00924539
64.79 0.017512
64.985 0.0243622
65.18 0.0571659
65.375 0.0267405
65.57 0.0356476
65.765 0.0168278
65.96 -0.0034178
66.155 0.0125311
66.35 -0.0134816
66.545 0.00341538
66.74 0.012391
66.935 0.0187981
67.13 0.00474498
67.325 0.00332323
67.52 0.0037322
67.715 -0.00140504
67.91 0.0147422
68.105 0.0279139
68.3 0.0371672
68.495 0.03311
68.69 0.0311001
68.885 0.0228847
69.08 0.0219829
69.275 0.0152058
69.47 0.00260436
69.665 -0.00601548
69.86 0.0152459
70.055 0.0135256
70.25 0.0244132
70.445 0.0146126
70.64 0.0338801
70.835 0.0896376
71.03 0.140051
71.225 0.182375
71.42 0.162783
71.615 0.0920902
71.81 0.0250781
72.005 0.019276
72.2 -0.00917241
72.395 0.00592722
72.59 0.0109846
72.785 0.00803924
72.885 -0.016302