Folder: rapid/data/xrd/xy (part 7)

File: 2019-05-29T17_22_53.471261+00_00_LBL_A1.xy
'Id: "" Comment: "Integrate frame 060320190_01_001.gfrmwith cursor Wedge Cursor #1" Operator: "UC Berkeley" Anode: "Co" Scantype: "TwoTheta" TimePerStep: "400"
14.475 -0.0314987
14.645 0.304822
14.815 0.299122
14.985 0.0377638
15.155 0.114817
15.325 0.0714099
15.495 0.050125
15.665 0.0462302
15.835 0.093032
16.005 0.0441965
16.175 0.0749117
16.345 0.0585433
16.515 0.0205296
16.685 0.0812148
16.855 0.0325136
17.025 0.0356273
17.195 0.072848
17.365 0.0284744
17.535 0.0759603
17.705 0.0243389
17.875 0.0159955
18.045 0.0820913
18.215 0.0385582
18.385 0.0515211
18.555 0.0310751
18.725 0.0541595
18.895 0.0765232
19.065 0.0471151
19.235 0.0307837
19.405 0.0441331
19.575 0.00738547
19.745 0.00662274
19.915 0.00274588
20.085 0.0308562
20.255 0.0175645
20.425 0.0544408
20.595 0.0524722
20.765 0.0210529
20.935 0.00656619
21.105 0.0345784
21.275 0.0360174
21.445 0.0674002
21.615 0.0318151
21.785 0.0598742
21.955 0.0103651
22.125 0.0201276
22.295 0.00436061
22.465 0.0149291
22.635 0.0324207
22.805 0.025651
22.975 0.0320878
23.145 -0.00739438
23.315 0.187388
23.485 0.123617
23.655 0.041191
23.825 0.0368889
23.995 0.0662526
24.165 0.0254595
24.335 0.0276528
24.505 0.0264948
24.675 0.0719423
24.845 -0.00398135
25.015 0.0692649
25.185 0.0237044
25.355 0.0439275
25.525 0.0171625
25.695 0.0393056
25.865 0.0414654
26.035 0.0253314
26.205 0.0266081
26.375 0.0120816
26.545 -0.0012802
26.715 0.0256905
26.885 0.0381596
27.055 0.0389723
27.225 0.137573
27.395 0.276709
27.565 0.0878573
27.735 0.0563403
27.905 0.0613215
28.075 0.0790279
28.245 0.0303044
28.415 0.00049782
28.585 0.0225026
28.755 0.130431
28.925 0.41868
29.095 1.46755
29.265 0.65332
29.435 0.175923
29.605 0.250478
29.775 0.0928588
29.945 0.0833369
30.115 0.416075
30.285 0.27692
30.455 0.0311581
30.625 0.0214025
30.795 0.0200605
30.965 0.0283937
31.135 0.0326105
31.305 0.00155752
31.475 0.0223784
31.645 0.0072827
31.815 0.0869336
31.985 0.315364
32.155 0.0635482
32.325 0.0152236
32.495 0.0221448
32.665 0.0592662
32.835 0.0410421
33.005 0.0882485
33.175 0.0251047
33.345 0.0124515
33.515 0.0106703
33.685 0.00536159
33.855 0.0316118
34.025 0.0593062
34.195 0.027287
34.365 0.0334262
34.535 0.0774706
34.705 0.0907899
34.875 0.295706
35.045 0.0691528
35.215 0.00443714
35.385 0.0147459
35.555 0.000295736
35.725 -0.00239873
35.895 -0.00959562
36.065 0.0192603
36.235 0.0240318
36.405 0.0221398
36.575 -0.000329364
36.745 0.0463552
36.915 0.386147
37.085 0.754022
37.255 0.11656
37.425 0.0109771
37.595 0.0449261
37.765 0.103466
37.935 0.00932467
38.105 0.00787793
38.275 0.00708457
38.445 -0.00514242
38.615 0.00575316
38.785 0.000826834
38.955 -0.00955147
39.125 0.0233951
39.295 0.0837656
39.465 0.0419348
39.635 0.0506731
39.805 0.199026
39.975 0.844792
40.145 0.234616
40.315 0.0197226
40.485 0.0262157
40.655 0.0101725
40.825 0.0320737
40.995 -0.00664429
41.165 -0.00369117
41.335 0.03045
41.505 0.121511
41.675 0.0539176
41.845 0.00213171
42.015 0.00504958
42.185 0.000785414
42.355 0.0580459
42.525 0.0834488
42.695 0.00972458
42.865 0.0107618
43.035 0.0881375
43.205 0.0579165
43.375 -0.0151951
43.545 -0.0137172
43.715 0.0562214
43.885 0.0839541
44.055 0.0510336
44.225 0.0276073
44.395 0.0166365
44.565 -0.0225284
44.735 0.0170403
44.905 0.106171
45.075 0.882451
45.245 0.658993
45.415 0.0629825
45.585 0.0360182
45.755 0.0162828
45.925 0.0326523
46.095 0.122106
46.265 0.11696
46.435 0.087156
46.605 0.271676
46.775 0.27769
46.945 0.0892572
47.115 -0.0104911
47.285 0.00478165
47.455 0.00908647
47.625 0.0436837
47.795 0.0809609
47.965 0.0314624
48.135 0.00202963
48.305 0.0503676
48.475 0.139563
48.645 0.195917
48.815 0.0782421
48.985 0.00822899
49.155 0.00440765
49.325 0.00744615
49.495 -0.0114037
49.665 0.00200598
49.835 0.0305258
50.005 0.120038
50.175 0.231492
50.345 0.117666
50.515 0.0354849
50.685 0.00878354
50.855 0.0107706
51.025 0.000355504
51.195 0.00978493
51.365 -0.000348633
51.535 -0.0125834
51.705 0.00943568
51.875 -5.23251e-05
52.045 -0.00250966
52.215 -0.0199619
52.385 0.0178627
52.555 0.0388337
52.725 0.161224
52.895 0.392437
53.065 0.344989
53.235 0.0871868
53.405 0.0754956
53.575 0.131262
53.745 0.0704049
53.915 0.0261366
54.085 0.0270485
54.255 0.00740287
54.425 0.016502
54.595 0.0080119
54.765 0.000229091
54.935 -0.0138527
55.105 0.00724072
55.275 0.0436517
55.445 0.0324409
55.615 0.0421043
55.785 0.0517793
55.955 0.0377616
56.125 0.0596175
56.295 0.0443121
56.465 0.0262311
56.635 0.0404434
56.805 0.0179684
56.975 0.0169077
57.145 0.00145795
57.315 -0.0112587
57.485 -0.000725901
57.655 0.0205938
57.825 -0.0151394
57.995 0.0557616
58.165 0.0443343
58.335 0.0345718
58.505 0.0346823
58.675 0.0120263
58.845 0.0196164
59.015 0.00862041
59.185 0.0156466
59.355 0.0167311
59.525 0.0699125
59.695 0.176792
59.865 0.147142
60.035 0.0619278
60.205 0.0846244
60.375 0.0848961
60.545 0.0229837
60.715 0.000525198
60.885 0.00305469
61.055 0.00730215
61.225 0.0649326
61.395 0.292433
61.565 0.635
61.735 0.364508
61.905 0.0858612
62.075 0.0165065
62.245 0.0197922
62.415 0.0163661
62.585 0.0568362
62.755 0.0719356
62.925 0.0160915
63.095 -0.012727
63.265 -0.0018437
63.435 0.0157674
63.605 0.0194153
63.775 0.0249735
63.945 0.0204709
64.115 -0.00123406
64.245 -0.0216516

File: 2019-05-29T17_22_53.471261+00_00_LBL_H5.xy
'Id: "" Comment: "Integrate frame 060320190_02_002.gfrmwith cursor Wedge Cursor #2" Operator: "UC Berkeley" Anode: "Co" Scantype: "TwoTheta" TimePerStep: "400"
14.33 -0.0317513
14.505 -0.0305638
14.68 -0.0156069
14.855 0.0424498
15.03 -0.0120511
15.205 0.0289719
15.38 0.0437183
15.555 0.0337871
15.73 -0.0230643
15.905 -0.0133318
16.08 -0.0258736
16.255 0.0400516
16.43 0.0881963
16.605 0.0642121
16.78 0.010642
16.955 0.0418967
17.13 -0.00309728
17.305 -0.0262973
17.48 0.0108184
17.655 0.0551057
17.83 0.0106493
18.005 0.0299537
18.18 0.0618102
18.355 0.0693337
18.53 0.0312933
18.705 0.0745095
18.88 0.0833221
19.055 0.0392228
19.23 0.0504614
19.405 0.0287005
19.58 0.0212507
19.755 0.0500779
19.93 0.0282714
20.105 0.0562018
20.28 0.0385309
20.455 0.0453414
20.63 0.0646582
20.805 0.0358051
20.98 0.0354448
21.155 0.0390323
21.33 0.0145688
21.505 -0.0158506
21.68 0.0109799
21.855 -0.0105487
22.03 0.0301331
22.205 0.0089881
22.38 -0.022333
22.555 0.0258331
22.73 0.0147847
22.905 -0.018908
23.08 0.0299343
23.255 0.0544985
23.43 0.170607
23.605 0.0593337
23.78 0.0107673
23.955 0.0328677
24.13 0.031745
24.305 0.0142161
24.48 0.0155388
24.655 0.0228965
24.83 0.0358416
25.005 0.0260341
25.18 -0.00810022
25.355 0.0154227
25.53 -0.0119702
25.705 0.0237316
25.88 0.00795555
26.055 0.0205725
26.23 0.000533176
26.405 0.0232474
26.58 0.022336
26.755 0.0204649
26.93 0.0505609
27.105 0.0303199
27.28 0.0349452
27.455 0.0680324
27.63 0.0937006
27.805 0.0301973
27.98 0.0567788
28.155 0.194533
28.33 0.269661
28.505 0.10714
28.68 0.0800467
28.855 0.0493976
29.03 0.0730359
29.205 0.139378
29.38 0.115401
29.555 0.0087498
29.73 0.0316233
29.905 0.0164722
30.08 -0.0108824
30.255 0.00731244
30.43 0.00652115
30.605 0.039318
30.78 0.0388119
30.955 0.0310204
31.13 0.000931381
31.305 0.00976227
31.48 0.00280413
31.655 0.0215507
31.83 0.00871569
32.005 0.0408521
32.18 0.0183008
32.355 -0.0191002
32.53 0.0419298
32.705 0.0452148
32.88 0.0517346
33.055 0.0542931
33.23 0.116083
33.405 0.0673861
33.58 0.0582805
33.755 0.0143959
33.93 0.0553844
34.105 0.0465677
34.28 -0.0102943
34.455 0.00754457
34.63 -0.0111077
34.805 -0.00116674
34.98 0.00251858
35.155 0.00956888
35.33 -0.00160333
35.505 -0.0230706
35.68 -0.011492
35.855 0.00360473
36.03 -0.00162228
36.205 0.01305
36.38 0.0142649
36.555 0.0143922
36.73 0.0168383
36.905 0.0505783
37.08 0.127433
37.255 0.0397059
37.43 0.0168099
37.605 0.0435459
37.78 0.0870407
37.955 0.129568
38.13 0.0406596
38.305 0.023247
38.48 -0.0149689
38.655 0.0108671
38.83 -0.0174754
39.005 0.013584
39.18 0.00750017
39.355 0.0083867
39.53 -0.00572136
39.705 -0.00866028
39.88 0.0357481
40.055 0.0575867
40.23 0.0379538
40.405 0.0116003
40.58 -0.00153525
40.755 0.0221696
40.93 0.0126521
41.105 0.0094112
41.28 0.0220731
41.455 0.00814726
41.63 0.0270035
41.805 0.024042
41.98 -0.0138941
42.155 0.000516799
42.33 0.00569387
42.505 0.0336568
42.68 0.00211412
42.855 -0.00992115
43.03 0.0268238
43.205 0.0514011
43.38 -0.0121195
43.555 -0.0134073
43.73 0.0139016
43.905 0.0436335
44.08 0.0099933
44.255 0.00233621
44.43 -0.00167013
44.605 0.00499918
44.78 -0.00222922
44.955 0.0462462
45.13 0.0448178
45.305 0.0889433
45.48 0.0453997
45.655 0.0443355
45.83 0.0537437
46.005 0.105506
46.18 0.176137
46.355 0.18857
46.53 0.162466
46.705 0.135562
46.88 0.0834308
47.055 0.0327674
47.23 -0.002338
47.405 0.000983903
47.58 0.0205731
47.755 0.0939762
47.93 0.32991
48.105 0.163853
48.28 0.0497022
48.455 0.0594612
48.63 0.0779715
48.805 0.0203906
48.98 -0.00635809
49.155 0.000197757
49.33 0.0185861
49.505 0.00266745
49.68 -0.00801933
49.855 -0.000192714
50.03 0.0325253
50.205 0.0766661
50.38 0.0253324
50.555 -0.0142146
50.73 -0.0178859
50.905 -0.00421428
51.08 -0.0148802
51.255 -0.0123192
51.43 -0.0218532
51.605 0.00159011
51.78 -0.0182642
51.955 -0.0122349
52.13 -0.0060452
52.305 0.00722293
52.48 0.00908338
52.655 -0.00447063
52.83 -0.0192505
53.005 0.00148587
53.18 0.0117525
53.355 0.0132768
53.53 0.042686
53.705 0.0701241
53.88 0.0373261
54.055 0.0536193
54.23 0.0415328
54.405 0.0292793
54.58 0.0285038
54.755 0.0156448
54.93 0.0178968
55.105 -0.00839264
55.28 -0.00887449
55.455 0.00227557
55.63 0.00735865
55.805 0.0134794
55.98 0.0136722
56.155 0.0324719
56.33 0.0351274
56.505 0.0576874
56.68 0.0209953
56.855 -0.00515845
57.03 0.00913606
57.205 -0.0143499
57.38 -0.00221194
57.555 -0.00368411
57.73 0.00586132
57.905 0.0378319
58.08 0.0471541
58.255 0.225075
58.43 0.31071
58.605 0.104275
58.78 0.0295268
58.955 0.0141882
59.13 0.01828
59.305 0.00882153
59.48 0.0183892
59.655 0.031017
59.83 0.0163467
60.005 0.00983929
60.18 0.0592524
60.355 0.133494
60.53 0.0297748
60.705 0.00132755
60.88 -0.00642117
61.055 0.0047694
61.23 -0.0126468
61.405 0.00714216
61.58 0.00300274
61.755 0.0105912
61.93 0.00754317
62.105 -0.00626898
62.28 -0.0158449
62.455 -0.000453977
62.63 0.0129181
62.805 0.0114274
62.98 0.00453258
63.155 0.00709509
63.33 0.0210703
63.505 0.0262153
63.68 0.0421013
63.855 0.0190895
64.03 0.0212798
64.205 -0.00113553
64.38 0.0123642
64.555 0.00323122
64.73 -0.00954387
64.905 -0.00191604
65.08 -0.00738006
65.255 -0.00581765
65.43 -0.0174105
65.455 -0.0196303

File: 2019-05-29T19_49_43.354126+00_00_LBL_A1.xy
'Id: "" Comment: "Integrate frame 060320190_03_002.gfrmwith cursor Wedge Cursor #3" Operator: "UC Berkeley" Anode: "Co" Scantype: "TwoTheta" TimePerStep: "400"
14.33 -0.0313655
14.505 0.0249969
14.68 0.113461
14.855 0.111165
15.03 0.0582716
15.205 -0.030427
15.38 0.0473846
15.555 -0.0119928
15.73 0.0296972
15.905 0.0562615
16.08 0.00658506
16.255 0.0437331
16.43 0.0373099
16.605 0.0269861
16.78 0.0428317
16.955 0.0266551
17.13 0.0701002
17.305 0.0277521
17.48 0.0659654
17.655 0.0269821
17.83 0.0861818
18.005 -0.0194114
18.18 0.072375
18.355 0.0571629
18.53 0.102405
18.705 0.0901757
18.88 0.0393384
19.055 0.0470875
19.23 0.0581616
19.405 0.0241437
19.58 0.0812633
19.755 0.0448798
19.93 0.0456199
20.105 0.0540409
20.28 0.080076
20.455 0.0359306
20.63 0.0536272
20.805 0.0829509
20.98 0.0679759
21.155 0.098426
21.33 0.0646635
21.505 0.00201971
21.68 0.0636785
21.855 -0.00193402
22.03 -0.00232911
22.205 0.0456501
22.38 0.0535844
22.555 0.00849734
22.73 0.0484532
22.905 0.0273405
23.08 0.0367703
23.255 0.0500299
23.43 0.00520107
23.605 0.034052
23.78 0.0663409
23.955 -0.0137088
24.13 0.00722203
24.305 0.0194713
24.48 0.0311734
24.655 0.0453524
24.83 0.0492091
25.005 0.0243478
25.18 0.0675377
25.355 0.00440193
25.53 0.0127815
25.705 -0.014087
25.88 -0.0274896
26.055 0.0595552
26.23 0.111805
26.405 0.0508952
26.58 0.0534695
26.755 0.0207071
26.93 0.00393987
27.105 0.0656196
27.28 0.074354
27.455 0.0507562
27.63 0.107619
27.805 0.0857516
27.98 0.220474
28.155 0.0158912
28.33 0.0555617
28.505 0.000718639
28.68 -0.0251184
28.855 -0.0216502
29.03 0.0434139
29.205 0.0114228
29.38 0.0377679
29.555 0.188492
29.73 0.140933
29.905 0.134877
30.08 1.52766
30.255 0.771732
30.43 0.0517709
30.605 0.0224705
30.78 0.0305388
30.955 0.0263791
31.13 0.0280553
31.305 -0.00563786
31.48 -0.000447629
31.655 0.00122022
31.83 0.0051925
32.005 0.0414682
32.18 0.130153
32.355 0.0167839
32.53 0.0316174
32.705 0.00185246
32.88 0.032477
33.055 0.00446178
33.23 -0.00342944
33.405 -0.00632193
33.58 0.00566376
33.755 -0.00204789
33.93 -0.0156752
34.105 -0.00800602
34.28 0.0424706
34.455 0.550515
34.63 0.233297
34.805 0.0370441
34.98 0.030544
35.155 0.104329
35.33 0.121264
35.505 0.0285383
35.68 0.00434337
35.855 0.00493213
36.03 0.0243069
36.205 0.056381
36.38 0.0248015
36.555 -0.0122265
36.73 0.000832179
36.905 -0.00432198
37.08 -0.0174479
37.255 0.00320192
37.43 0.0113654
37.605 0.0224102
37.78 0.00609395
37.955 0.00292308
38.13 0.00285051
38.305 0.0135096
38.48 0.0972525
38.655 0.100189
38.83 0.0130021
39.005 -0.00848627
39.18 -0.0181196
39.355 -2.20865e-05
39.53 0.00577752
39.705 0.0873927
39.88 0.886859
40.055 0.846864
40.23 0.0936933
40.405 0.0263438
40.58 -0.00743504
40.755 0.013103
40.93 0.0188019
41.105 -0.00359258
41.28 0.0113551
41.455 -0.0195019
41.63 0.00500656
41.805 0.0170345
41.98 0.0176042
42.155 0.0807478
42.33 0.163573
42.505 0.136536
42.68 0.0276091
42.855 0.00837296
43.03 -0.000951603
43.205 -0.0173503
43.38 0.00295844
43.555 0.00888984
43.73 -0.011578
43.905 0.0212515
44.08 0.0389786
44.255 -0.0160823
44.43 0.012344
44.605 0.0060777
44.78 0.00290604
44.955 0.173742
45.13 0.62207
45.305 0.245935
45.48 0.0266164
45.655 0.032053
45.83 0.113723
46.005 0.456228
46.18 1.41499
46.355 0.5719
46.53 0.123936
46.705 0.0159728
46.88 0.0149212
47.055 0.0100358
47.23 0.00986548
47.405 0.0497776
47.58 0.149151
47.755 0.0511384
47.93 0.0143602
48.105 0.0161816
48.28 0.0270885
48.455 0.0179349
48.63 0.189454
48.805 0.208488
48.98 0.0293062
49.155 -0.0128488
49.33 -0.0118797
49.505 0.00354281
49.68 -0.00697255
49.855 -0.0210508
50.03 -0.00402379
50.205 0.0179157
50.38 0.0222516
50.555 0.0745141
50.73 0.0611453
50.905 0.0105599
51.08 0.0147783
51.255 -0.0126474
51.43 -0.00253361
51.605 -0.00553995
51.78 0.00120074
51.955 -0.0186791
52.13 -0.00596345
52.305 -0.00818731
52.48 0.0208984
52.655 0.0496962
52.83 0.329412
53.005 0.426986
53.18 0.122454
53.355 0.00897646
53.53 -0.0028507
53.705 0.0102021
53.88 0.0182967
54.055 -0.00308188
54.23 -0.0125524
54.405 -0.00275599
54.58 0.000721722
54.755 0.00583686
54.93 0.0163373
55.105 0.0339459
55.28 -0.000916733
55.455 0.00185327
55.63 0.0144834
55.805 0.0345837
55.98 0.191204
56.155 0.387245
56.33 0.214069
56.505 0.0363353
56.68 -0.0115846
56.855 0.0139173
57.03 0.0182186
57.205 -0.00523737
57.38 0.0143156
57.555 -0.00705159
57.73 0.0405705
57.905 0.106786
58.08 0.0314746
58.255 0.0278303
58.43 0.0174538
58.605 0.013253
58.78 0.0432959
58.955 0.0842602
59.13 0.0254785
59.305 -0.00337835
59.48 0.00549369
59.655 0.0128183
59.83 -9.58826e-05
60.005 0.0157563
60.18 0.0173607
60.355 -0.0111441
60.53 -0.020289
60.705 0.0176743
60.88 0.00834576
61.055 0.00783176
61.23 0.0383686
61.405 0.198783
61.58 0.376814
61.755 0.218065
61.93 0.0319868
62.105 -0.00925455
62.28 -0.000284834
62.455 0.0237948
62.63 0.200112
62.805 0.186194
62.98 0.101785
63.155 -0.0108451
63.33 -0.0140603
63.505 -0.000795351
63.68 0.000457086
63.855 0.0047466
64.03 0.00986715
64.205 -0.000779683
64.38 0.0304404
64.555 0.0218005
64.73 -0.00056853
64.905 -0.00804942
65.08 -0.00225827
65.255 0.00156545
65.43 -0.00414709
65.605 -0.00984455
65.63 -0.0211232

File: 2019-05-29T19_56_50.129046+00_00_LBL_A1.xy
'Id: "" Comment: "Integrate frame 4Fluorophenyl_01_002.gfrmwith cursor Wedge Cursor #1" Operator: "UC Berkeley" Anode: "Co" Scantype: "TwoTheta" TimePerStep: "600"
14.31 -0.0254518
14.485 0.000151474
14.66 0.0279062
14.835 0.0230432
15.01 0.0604108
15.185 0.0246734
15.36 0.0286335
15.535 0.0281048
15.71 0.00705617
15.885 0.00585414
16.06 0.0102381
16.235 0.0051961
16.41 0.0100381
16.585 -0.0246251
16.76 0.0186231
16.935 0.0462086
17.11 0.0101371
17.285 0.0068727
17.46 0.00565399
17.635 0.030709
17.81 0.0152408
17.985 0.0325582
18.16 0.0285626
18.335 -0.00223886
18.51 0.0196433
18.685 0.111329
18.86 0.0942
19.035 0.0306473
19.21 0.00680432
19.385 0.0445168
19.56 0.017922
19.735 -0.00345204
19.91 -0.00124019
20.085 0.018124
20.26 -0.00965325
20.435 0.0240485
20.61 0.0172625
20.785 0.00852799
20.96 -0.0243594
21.135 0.0232416
21.31 0.0270823
21.485 0.0400721
21.66 0.0140574
21.835 0.0283621
22.01 0.013156
22.185 0.00348448
22.36 -0.0243931
22.535 0.00395794
22.71 -0.0221303
22.885 0.029482
23.06 0.0127466
23.235 0.0393195
23.41 0.00183559
23.585 0.0666044
23.76 0.0651666
23.935 0.0005555
24.11 0.0119161
24.285 -0.00660388
24.46 0.0424957
24.635 0.00397334
24.81 0.071219
24.985 0.982489
25.16 0.49642
25.335 0.0297943
25.51 0.0522791
25.685 -0.00724787
25.86 -0.0235609
26.035 -0.0172512
26.21 0.0110283
26.385 -0.0056545
26.56 -0.00524384
26.735 -0.00686625
26.91 0.0286324
27.085 0.0469277
27.26 0.189654
27.435 -0.00808022
27.61 -0.00232388
27.785 -0.0105633
27.96 0.0319769
28.135 0.0255702
28.31 0.0431528
28.485 -0.012976
28.66 -0.0178596
28.835 0.0157507
29.01 0.00510535
29.185 0.000355628
29.36 -0.0140194
29.535 0.00836708
29.71 0.21141
29.885 0.0204821
30.06 0.399284
30.235 0.743992
30.41 0.0805591
30.585 0.0753428
30.76 0.0162181
30.935 0.0804299
31.11 0.234926
31.285 2.88579
31.46 21.7284
31.635 0.638896
31.81 0.217472
31.985 0.0592467
32.16 0.000754586
32.335 -0.0156906
32.51 -0.0131387
32.685 0.00159901
32.86 0.0107865
33.035 0.019401
33.21 -0.0119906
33.385 -0.0140472
33.56 0.0259875
33.735 0.117029
33.91 0.340879
34.085 0.171001
34.26 0.0958639
34.435 0.522152
34.61 1.16124
34.785 0.179864
34.96 0.0744243
35.135 0.0456262
35.31 0.0245927
35.485 0.00474415
35.66 -0.00395672
35.835 -0.00518111
36.01 0.00559775
36.185 0.0546639
36.36 0.026306
36.535 0.00558114
36.71 -0.0114687
36.885 -0.0215981
37.06 -0.0148001
37.235 0.000995576
37.41 0.118632
37.585 0.140585
37.76 0.617458
37.935 8.78973
38.11 2.5612
38.285 0.149714
38.46 0.0174487
38.635 0.00013126
38.81 -0.0204506
38.985 -0.0210718
39.16 0.00357759
39.335 0.000298174
39.51 0.0112319
39.685 0.0226597
39.86 0.293446
40.035 0.609704
40.21 0.102898
40.385 0.0098141
40.56 -0.00501878
40.735 0.00821765
40.91 0.0306179
41.085 -0.00110351
41.26 -0.0143067
41.435 8.23835e-05
41.61 -0.011887
41.785 -0.00333498
41.96 0.0148829
42.135 -0.00633393
42.31 -0.00317662
42.485 -0.00510119
42.66 0.0121065
42.835 0.0075559
43.01 -0.00242137
43.185 0.017244
43.36 0.00910432
43.535 0.00577012
43.71 0.000775602
43.885 0.00731047
44.06 0.042825
44.235 0.0771946
44.41 0.108624
44.585 0.677049
44.76 0.334569
44.935 0.234018
45.11 1.82408
45.285 1.08784
45.46 0.0813997
45.635 0.0151467
45.81 0.0697
45.985 0.318559
46.16 1.39636
46.335 0.915452
46.51 0.0988442
46.685 0.0165076
46.86 -0.00922386
47.035 0.00926774
47.21 0.00137503
47.385 0.0173915
47.56 -0.0190778
47.735 -0.00976454
47.91 -0.0011214
48.085 0.00134458
48.26 -0.00488085
48.435 -0.0182996
48.61 0.0799289
48.785 0.265241
48.96 0.0623202
49.135 -0.00325049
49.31 0.108832
49.485 0.226502
49.66 0.138608
49.835 0.00722906
50.01 -0.00445124
50.185 -0.00384692
50.36 -0.0142811
50.535 -0.00157108
50.71 0.00190371
50.885 -0.00363608
51.06 0.0049292
51.235 0.0033616
51.41 0.0345367
51.585 0.0204008
51.76 -0.00717886
51.935 0.00705564
52.11 -0.00384569
52.285 -0.00881659
52.46 0.00834406
52.635 0.0479322
52.81 0.216165
52.985 0.478101
53.16 0.206323
53.335 0.0364905
53.51 0.0210097
53.685 0.0272971
53.86 -0.00487584
54.035 -0.0151054
54.21 -0.00902324
54.385 0.018315
54.56 0.0502256
54.735 0.015801
54.91 0.0120681
55.085 0.00251453
55.26 -0.0130743
55.435 -0.010619
55.61 -0.00653763
55.785 0.00900225
55.96 0.0494333
56.135 0.0861248
56.31 0.106192
56.485 0.0289563
56.66 -0.0069054
56.835 -0.014525
57.01 -0.0157537
57.185 0.0435566
57.36 0.020945
57.535 -0.0149773
57.71 -0.0130163
57.885 0.00167071
58.06 -0.0128073
58.235 0.0283508
58.41 0.0327798
58.585 0.00465118
58.76 0.0302714
58.935 0.100262
59.11 0.128747
59.285 0.0384082
59.46 0.00449355
59.635 0.0116934
59.81 -0.000266265
59.985 0.0284449
60.16 0.0418152
60.335 0.0431662
60.51 0.0421496
60.685 -0.00272342
60.86 -0.00487982
61.035 0.00156327
61.21 0.0507245
61.385 0.488585
61.56 1.30754
61.735 0.931174
61.91 0.13701
62.085 0.0048862
62.26 0.00245183
62.435 0.0085098
62.61 0.0297855
62.785 0.0715744
62.96 0.0394615
63.135 0.0101047
63.31 0.016638
63.485 0.0341569
63.66 -0.000758281
63.835 -0.000500872
64.01 0.0153765
64.185 4.37345e-05
64.36 -0.00930652
64.535 -0.00149201
64.71 0.0132199
64.885 0.0154152
65.06 0.00758355
65.235 0.00416049
65.41 -0.00164578
65.585 -0.00330254
65.635 -0.0165655

File: 2019-05-29T19_56_50.129046+00_00_LBL_B1.xy
'Id: "" Comment: "Integrate frame 4Fluorophenyl_02_002.gfrmwith cursor Wedge Cursor #2" Operator: "UC Berkeley" Anode: "Co" Scantype: "TwoTheta" TimePerStep: "600"
14.435 -0.0248292
14.61 0.003589
14.785 0.0546091
14.96 0.0229158
15.135 0.0157716
15.31 0.0415608
15.485 0.000254339
15.66 0.015304
15.835 0.0245227
16.01 0.0453644
16.185 0.0154947
16.36 -0.0173787
16.535 0.0556683
16.71 0.0353396
16.885 0.0301853
17.06 0.0444228
17.235 0.0795197
17.41 0.00717088
17.585 -0.00414832
17.76 0.0341447
17.935 -0.00775387
18.11 0.0660238
18.285 0.0481067
18.46 0.082507
18.635 0.182481
18.81 0.0535469
18.985 0.0262425
19.16 0.0148206
19.335 0.0387294
19.51 0.0182702
19.685 0.00506267
19.86 0.0277446
20.035 0.0123584
20.21 -0.00947132
20.385 0.0204632
20.56 0.035478
20.735 0.015526
20.91 0.00935128
21.085 0.0322947
21.26 0.0426798
21.435 0.0129105
21.61 0.02153
21.785 0.0526621
21.96 0.0115514
22.135 0.0042217
22.31 0.034689
22.485 0.0330805
22.66 0.0231874
22.835 0.058319
23.01 -0.00249464
23.185 0.0476011
23.36 0.0404144
23.535 0.061161
23.71 0.244796
23.885 2.41216
24.06 0.0839217
24.235 0.037861
24.41 0.0142993
24.585 0.0437368
24.76 0.0277211
24.935 0.189737
25.11 0.0480939
25.285 0.0116638
25.46 0.0172149
25.635 0.0372817
25.81 0.0272039
25.985 0.00186308
26.16 0.0514643
26.335 0.0232784
26.51 0.22529
26.685 0.144326
26.86 0.0562437
27.035 0.0529888
27.21 0.0585872
27.385 0.0321541
27.56 0.0293606
27.735 0.0494499
27.91 0.0603088
28.085 0.0908399
28.26 0.0436254
28.435 0.0570309
28.61 0.0690373
28.785 0.0740259
28.96 0.0251479
29.135 0.00556631
29.31 0.0319022
29.485 0.00951146
29.66 0.0418646
29.835 -0.00158137
30.01 0.0353729
30.185 0.0172529
30.36 0.0860942
30.535 0.261367
30.71 0.0555149
30.885 0.463746
31.06 0.12824
31.235 0.997773
31.41 1.13499
31.585 0.303847
31.76 0.688693
31.935 0.458905
32.11 0.0314784
32.285 0.0211371
32.46 -0.0043376
32.635 0.0317069
32.81 -0.000565594
32.985 0.0130434
33.16 -0.000196686
33.335 0.0268951
33.51 -0.00720731
33.685 0.0470243
33.86 0.0996271
34.035 0.314545
34.21 0.383192
34.385 0.0293044
34.56 0.00276758
34.735 0.0174514
34.91 0.0632055
35.085 0.019795
35.26 -0.00689133
35.435 -0.00175301
35.61 0.0161903
35.785 0.0126526
35.96 -0.0143909
36.135 0.00655463
36.31 -0.00720705
36.485 -0.00739202
36.66 -0.00196314
36.835 0.01379
37.01 0.00879811
37.185 0.00954508
37.36 0.148868
37.535 0.509266
37.71 1.09192
37.885 1.40813
38.06 0.35393
38.235 0.380937
38.41 0.136799
38.585 0.0166281
38.76 -0.00519419
38.935 0.0131485
39.11 0.195523
39.285 0.0587496
39.46 0.0694076
39.635 0.0326486
39.81 0.165157
39.985 0.180998
40.16 0.081516
40.335 0.00666614
40.51 0.00117301
40.685 0.0108713
40.86 0.0350736
41.035 -0.00266415
41.21 -0.00105024
41.385 0.00247294
41.56 0.000241282
41.735 0.0168191
41.91 0.00896751
42.085 0.00194638
42.26 -0.0127721
42.435 0.0190889
42.61 0.0471835
42.785 0.0281842
42.96 0.0011316
43.135 -0.00103631
43.31 0.0379424
43.485 0.0439973
43.66 0.0380347
43.835 0.00144756
44.01 0.000861305
44.185 0.0444025
44.36 0.114296
44.535 0.264188
44.71 0.204576
44.885 0.0501471
45.06 0.0755453
45.235 0.0772031
45.41 0.143136
45.585 0.0267939
45.76 0.00121031
45.935 -0.00357628
46.11 0.0645036
46.285 0.0265855
46.46 0.00517115
46.635 -0.00561138
46.81 0.00456369
46.985 0.00529047
47.16 0.00305057
47.335 0.0182919
47.51 0.00534192
47.685 0.0185939
47.86 0.0107053
48.035 0.022954
48.21 -0.00819912
48.385 0.00150055
48.56 0.0566697
48.735 0.0919601
48.91 0.451361
49.085 0.830788
49.26 0.0964439
49.435 0.111732
49.61 0.140258
49.785 -0.00656632
49.96 0.00256985
50.135 -0.0084551
50.31 0.00246904
50.485 0.0301263
50.66 0.0031622
50.835 -0.00912425
51.01 0.0219595
51.185 0.025407
51.36 0.0134715
51.535 0.0208258
51.71 0.0356132
51.885 0.002177
52.06 -0.00723036
52.235 0.00427951
52.41 -0.00881558
52.585 -0.0117405
52.76 -0.00546479
52.935 0.0054113
53.11 0.00822986
53.285 0.0317842
53.46 0.119559
53.635 0.154508
53.81 0.113206
53.985 0.0695976
54.16 0.0408964
54.335 0.0311789
54.51 0.0193841
54.685 0.0850983
54.86 0.0283577
55.035 0.038242
55.21 0.103612
55.385 0.0222326
55.56 -0.0141205
55.735 0.00734565
55.91 0.0315114
56.085 0.0135105
56.26 0.00758245
56.435 -0.00394287
56.61 0.000510036
56.785 -0.0041154
56.96 -0.0128766
57.135 0.0225446
57.31 0.00562074
57.485 0.00143078
57.66 -0.00541683
57.835 -0.0044645
58.01 0.00538974
58.185 0.00310093
58.36 0.234564
58.535 0.38729
58.71 0.0967747
58.885 0.000281454
59.06 0.0418264
59.235 -0.000175602
59.41 0.00909362
59.585 0.00507633
59.76 -0.00252457
59.935 -0.00291968
60.11 -0.0129636
60.285 -0.000429767
60.46 0.00934775
60.635 0.00609898
60.81 0.0115178
60.985 0.00729399
61.16 0.02165
61.335 -0.0100971
61.51 0.0146734
61.685 -0.0018654
61.86 0.0638043
62.035 0.000553189
62.21 0.00911489
62.385 -0.0118906
62.56 0.0214111
62.735 0.00744787
62.91 0.107659
63.085 0.108904
63.26 0.0457011
63.435 0.117267
63.61 0.0160238
63.785 0.0116957
63.96 0.0340259
64.135 -0.0031928
64.31 -0.0112164
64.485 0.0166926
64.66 0.0152246
64.835 -8.77349e-05
65.01 -0.00838193
65.185 0.013015
65.36 0.0277413
65.535 -0.0118721
65.585 -0.0216816