Folder: rapid/data/xrd/xy (part 19)

File: Dimethylammmonium_Bromide.lbl_rescaled.xy
# Processed xy data with Haverford two-theta converted to LBL scale
two_theta,intensity
5.81234,5.0
6.06814,3.0
6.32395,3.0
6.57977,6.0
6.8356,5.0
7.09144,5.0
7.34728,2.0
7.60314,10.0
7.85901,4.0
8.11488,4.0
8.37077,7.0
8.62667,9.0
8.88257,10.0
9.1385,5.0
9.39443,8.0
9.65037,9.0
9.90633,6.0
10.1623,5.0
10.4183,6.0
10.6743,9.0
10.9303,3.0
11.1863,8.0
11.4424,5.0
11.6984,5.0
11.9545,6.0
12.2106,5.0
12.4667,5.0
12.7228,7.0
12.9789,4.0
13.2351,4.0
13.4912,4.0
13.7474,8.0
14.0036,3.0
14.2599,9.0
14.5161,19.0
14.7724,83.0
15.0287,18.0
15.285,56.0
15.5413,7.0
15.7976,5.0
16.054,6.0
16.3104,3.0
16.5668,3.0
16.8232,4.0
17.0797,5.0
17.3361,6.0
17.5926,8.0
17.8491,4.0
18.1057,4.0
18.3623,6.0
18.6188,8.0
18.8755,5.0
19.1321,5.0
19.3888,7.0
19.6455,3.0
19.9022,4.0
20.1589,9.0
20.4157,17.0
20.6725,108.0
20.9294,19.0
21.1862,57.0
21.4431,59.0
21.7,40.0
21.957,19.0
22.2139,9.0
22.4709,5.0
22.728,5.0
22.9851,9.0
23.2422,8.0
23.4993,7.0
23.7564,7.0
24.0136,3.0
24.2709,6.0
24.5281,6.0
24.7854,12.0
25.0428,82.0
25.3001,13.0
25.5575,64.0
25.815,4.0
26.0724,10.0
26.3299,12.0
26.5875,6.0
26.8451,8.0
27.1027,7.0
27.3603,10.0
27.618,7.0
27.8758,8.0
28.1335,6.0
28.3913,14.0
28.6492,15.0
28.9071,16.0
29.165,33.0
29.423,100.0
29.681,3677.0
29.9391,155.0
30.1972,62.0
30.4553,241.0
30.7135,1244.0
30.9717,296.0
31.23,36.0
31.4883,19.0
31.7467,13.0
32.0051,16.0
32.2635,18.0
32.522,116.0
32.7806,29.0
33.0392,23.0
33.2978,11.0
33.5565,34.0
33.8153,17.0
34.0741,10.0
34.3329,13.0
34.5918,11.0
34.8507,15.0
35.1097,15.0
35.3688,13.0
35.6279,11.0
35.887,19.0
36.1462,10.0
36.4055,26.0
36.6648,138.0
36.9241,16.0
37.1836,13.0
37.443,17.0
37.7026,15.0
37.9621,14.0
38.2218,9.0
38.4815,22.0
38.7412,10.0
39.0011,7.0
39.2609,7.0
39.5209,6.0
39.7809,6.0
40.0409,8.0
40.3011,9.0
40.5612,8.0
40.8215,12.0
41.0818,7.0
41.3421,18.0
41.6026,15.0
41.8631,14.0
42.1236,52.0
42.3843,55.0
42.645,15.0
42.9057,6.0
43.1665,10.0
43.4274,18.0
43.6884,21.0
43.9494,20.0
44.2105,27.0
44.4717,42.0
44.733,25.0
44.9943,15.0
45.2557,192.0
45.5171,17.0
45.7786,27.0
46.0403,14.0
46.3019,10.0
46.5637,12.0
46.8255,29.0
47.0874,55.0
47.3494,26.0
47.6115,27.0
47.8736,19.0
48.1358,10.0
48.3981,17.0
48.6605,27.0
48.923,28.0
49.1855,23.0
49.4481,52.0
49.7108,22.0
49.9736,12.0
50.2365,53.0
50.4994,22.0
50.7625,11.0
51.0256,15.0
51.2888,10.0
51.5521,11.0
51.8155,12.0
52.079,11.0
52.3426,10.0
52.6062,11.0
52.87,13.0
53.1338,12.0
53.3978,9.0
53.6618,9.0
53.9259,10.0
54.1901,20.0
54.4545,11.0
54.7189,9.0
54.9834,28.0
55.248,33.0
55.5127,20.0
55.7775,8.0
56.0424,10.0
56.3074,9.0
56.5725,12.0
56.8377,12.0
57.103,48.0
57.3685,27.0
57.634,14.0
57.8996,27.0
58.1654,16.0
58.4312,11.0
58.6972,15.0
58.9632,13.0
59.2294,18.0
59.4957,16.0
59.7621,21.0
60.0286,20.0
60.2952,18.0
60.562,15.0
60.8288,16.0
61.0958,24.0
61.3629,39.0
61.6301,71.0
61.8974,37.0
62.1649,18.0
62.4325,14.0
62.7002,24.0
62.968,59.0
63.2359,17.0
63.504,14.0
63.7722,16.0
64.0405,21.0
64.309,16.0
64.5776,25.0
64.8463,17.0
65.1151,16.0
65.3841,47.0
65.6532,15.0
65.9225,11.0
66.1919,8.0
66.4614,13.0
66.7311,12.0
67.0009,15.0
67.2708,20.0
67.5409,12.0
67.8112,15.0
68.0815,17.0
68.3521,18.0
68.6227,14.0
68.8935,15.0
69.1645,13.0
69.4356,10.0
69.7069,13.0
69.9783,15.0
70.2499,12.0
70.5216,18.0
70.7935,18.0
71.0656,28.0
71.3378,14.0
71.6102,16.0
71.8827,13.0
72.1554,12.0
72.4283,14.0
72.7013,15.0
72.9745,11.0
73.2479,11.0
73.5214,10.0
73.7951,18.0
74.069,14.0
74.3431,8.0
74.6173,15.0
74.8917,18.0
75.1663,16.0
75.4411,14.0
75.7161,8.0
75.9912,2.0
76.2665,9.0
76.5421,9.0
76.8178,17.0
77.0937,14.0
77.3698,21.0
77.6461,22.0
77.9226,14.0
78.1992,21.0
78.4761,12.0
78.7532,12.0
79.0305,13.0
79.308,33.0
79.5857,27.0
79.8636,24.0
80.1417,8.0
80.4201,12.0
80.6986,11.0
80.9774,18.0
81.2564,13.0
81.5356,15.0
81.815,12.0
82.0947,11.0
82.3746,11.0
82.6547,11.0
82.935,16.0
83.2156,16.0
83.4964,11.0
83.6241,16.0

File: isobutylammonium_bromide.lbl_rescaled.xy
# Processed xy data with Haverford two-theta converted to LBL scale
two_theta,intensity
5.81234,8.0
6.06814,6.0
6.32395,10.0
6.57977,11.0
6.8356,10.0
7.09144,6.0
7.34728,9.0
7.60314,7.0
7.85901,10.0
8.11488,29.0
8.37077,304.0
8.62667,6832.0
8.88257,39.0
9.1385,6.0
9.39443,7.0
9.65037,3.0
9.90633,7.0
10.1623,6.0
10.4183,9.0
10.6743,10.0
10.9303,7.0
11.1863,5.0
11.4424,6.0
11.6984,8.0
11.9545,5.0
12.2106,3.0
12.4667,5.0
12.7228,5.0
12.9789,5.0
13.2351,7.0
13.4912,4.0
13.7474,6.0
14.0036,5.0
14.2599,5.0
14.5161,3.0
14.7724,7.0
15.0287,2.0
15.285,4.0
15.5413,8.0
15.7976,3.0
16.054,10.0
16.3104,9.0
16.5668,10.0
16.8232,60.0
17.0797,922.0
17.3361,142.0
17.5926,26.0
17.8491,10.0
18.1057,9.0
18.3623,12.0
18.6188,7.0
18.8755,9.0
19.1321,7.0
19.3888,5.0
19.6455,6.0
19.9022,3.0
20.1589,8.0
20.4157,11.0
20.6725,8.0
20.9294,4.0
21.1862,7.0
21.4431,5.0
21.7,5.0
21.957,7.0
22.2139,6.0
22.4709,6.0
22.728,8.0
22.9851,5.0
23.2422,5.0
23.4993,2.0
23.7564,10.0
24.0136,4.0
24.2709,14.0
24.5281,11.0
24.7854,29.0
25.0428,16.0
25.3001,49.0
25.5575,97.0
25.815,2257.0
26.0724,247.0
26.3299,37.0
26.5875,18.0
26.8451,21.0
27.1027,25.0
27.3603,16.0
27.618,19.0
27.8758,19.0
28.1335,9.0
28.3913,9.0
28.6492,13.0
28.9071,10.0
29.165,10.0
29.423,8.0
29.681,8.0
29.9391,16.0
30.1972,19.0
30.4553,18.0
30.7135,12.0
30.9717,16.0
31.23,25.0
31.4883,19.0
31.7467,18.0
32.0051,19.0
32.2635,24.0
32.522,24.0
32.7806,22.0
33.0392,27.0
33.2978,31.0
33.5565,29.0
33.8153,43.0
34.0741,50.0
34.3329,133.0
34.5918,926.0
34.8507,3707.0
35.1097,151.0
35.3688,59.0
35.6279,43.0
35.887,38.0
36.1462,35.0
36.4055,26.0
36.6648,25.0
36.9241,63.0
37.1836,20.0
37.443,13.0
37.7026,12.0
37.9621,13.0
38.2218,19.0
38.4815,14.0
38.7412,13.0
39.0011,15.0
39.2609,12.0
39.5209,14.0
39.7809,19.0
40.0409,11.0
40.3011,11.0
40.5612,13.0
40.8215,12.0
41.0818,9.0
41.3421,8.0
41.6026,22.0
41.8631,12.0
42.1236,11.0
42.3843,8.0
42.645,8.0
42.9057,10.0
43.1665,8.0
43.4274,19.0
43.6884,83.0
43.9494,116.0
44.2105,12.0
44.4717,12.0
44.733,7.0
44.9943,10.0
45.2557,9.0
45.5171,11.0
45.7786,9.0
46.0403,9.0
46.3019,7.0
46.5637,7.0
46.8255,6.0
47.0874,4.0
47.3494,5.0
47.6115,18.0
47.8736,11.0
48.1358,11.0
48.3981,11.0
48.6605,8.0
48.923,10.0
49.1855,6.0
49.4481,5.0
49.7108,7.0
49.9736,8.0
50.2365,7.0
50.4994,9.0
50.7625,9.0
51.0256,9.0
51.2888,8.0
51.5521,15.0
51.8155,5.0
52.079,12.0
52.3426,14.0
52.6062,13.0
52.87,17.0
53.1338,71.0
53.3978,94.0
53.6618,19.0
53.9259,12.0
54.1901,11.0
54.4545,16.0
54.7189,12.0
54.9834,15.0
55.248,16.0
55.5127,15.0
55.7775,10.0
56.0424,14.0
56.3074,12.0
56.5725,22.0
56.8377,26.0
57.103,13.0
57.3685,12.0
57.634,11.0
57.8996,12.0
58.1654,11.0
58.4312,12.0
58.6972,7.0
58.9632,11.0
59.2294,14.0
59.4957,12.0
59.7621,8.0
60.0286,12.0
60.2952,10.0
60.562,9.0
60.8288,10.0
61.0958,13.0
61.3629,12.0
61.6301,11.0
61.8974,12.0
62.1649,13.0
62.4325,10.0
62.7002,20.0
62.968,94.0
63.2359,67.0
63.504,12.0
63.7722,15.0
64.0405,17.0
64.309,10.0
64.5776,18.0
64.8463,11.0
65.1151,10.0
65.3841,10.0
65.6532,12.0
65.9225,14.0
66.1919,16.0
66.4614,9.0
66.7311,12.0
67.0009,9.0
67.2708,8.0
67.5409,4.0
67.8112,10.0
68.0815,12.0
68.3521,9.0
68.6227,9.0
68.8935,14.0
69.1645,20.0
69.4356,15.0
69.7069,13.0
69.9783,19.0
70.2499,15.0
70.5216,9.0
70.7935,7.0
71.0656,9.0
71.3378,8.0
71.6102,8.0
71.8827,12.0
72.1554,11.0
72.4283,24.0
72.7013,9.0
72.9745,17.0
73.2479,24.0
73.5214,50.0
73.7951,14.0
74.069,6.0
74.3431,14.0
74.6173,11.0
74.8917,4.0
75.1663,10.0
75.4411,12.0
75.7161,6.0
75.9912,5.0
76.2665,12.0
76.5421,15.0
76.8178,14.0
77.0937,13.0
77.3698,8.0
77.6461,11.0
77.9226,5.0
78.1992,8.0
78.4761,13.0
78.7532,9.0
79.0305,8.0
79.308,8.0
79.5857,13.0
79.8636,3.0
80.1417,10.0
80.4201,8.0
80.6986,12.0
80.9774,7.0
81.2564,8.0
81.5356,11.0
81.815,6.0
82.0947,5.0
82.3746,8.0
82.6547,9.0
82.935,9.0
83.2156,6.0
83.4964,13.0
83.6241,6.0

File: methylammonium_bromide.lbl_rescaled.xy
# Processed xy data with Haverford two-theta converted to LBL scale
two_theta,intensity
5.81234,6.0
6.06814,6.0
6.32395,2.0
6.57977,4.0
6.8356,3.0
7.09144,3.0
7.34728,1.0
7.60314,5.0
7.85901,5.0
8.11488,4.0
8.37077,6.0
8.62667,2.0
8.88257,5.0
9.1385,6.0
9.39443,5.0
9.65037,1.0
9.90633,4.0
10.1623,6.0
10.4183,0.0
10.6743,6.0
10.9303,5.0
11.1863,9.0
11.4424,21.0
11.6984,245.0
11.9545,109.0
12.2106,6.0
12.4667,3.0
12.7228,3.0
12.9789,6.0
13.2351,5.0
13.4912,2.0
13.7474,6.0
14.0036,5.0
14.2599,10.0
14.5161,9.0
14.7724,4.0
15.0287,4.0
15.285,7.0
15.5413,7.0
15.7976,5.0
16.054,6.0
16.3104,6.0
16.5668,7.0
16.8232,10.0
17.0797,5.0
17.3361,5.0
17.5926,6.0
17.8491,4.0
18.1057,6.0
18.3623,8.0
18.6188,6.0
18.8755,8.0
19.1321,12.0
19.3888,5.0
19.6455,16.0
19.9022,6.0
20.1589,8.0
20.4157,11.0
20.6725,13.0
20.9294,5.0
21.1862,9.0
21.4431,12.0
21.7,15.0
21.957,8.0
22.2139,17.0
22.4709,15.0
22.728,19.0
22.9851,27.0
23.2422,63.0
23.4993,622.0
23.7564,578.0
24.0136,37.0
24.2709,47.0
24.5281,103.0
24.7854,92.0
25.0428,17.0
25.3001,16.0
25.5575,13.0
25.815,8.0
26.0724,16.0
26.3299,18.0
26.5875,12.0
26.8451,12.0
27.1027,16.0
27.3603,9.0
27.618,19.0
27.8758,16.0
28.1335,13.0
28.3913,12.0
28.6492,12.0
28.9071,12.0
29.165,15.0
29.423,17.0
29.681,12.0
29.9391,24.0
30.1972,48.0
30.4553,152.0
30.7135,285.0
30.9717,26.0
31.23,20.0
31.4883,15.0
31.7467,44.0
32.0051,173.0
32.2635,349.0
32.522,45.0
32.7806,50.0
33.0392,46.0
33.2978,19.0
33.5565,18.0
33.8153,13.0
34.0741,7.0
34.3329,15.0
34.5918,16.0
34.8507,17.0
35.1097,24.0
35.3688,50.0
35.6279,326.0
35.887,252.0
36.1462,25.0
36.4055,18.0
36.6648,17.0
36.9241,12.0
37.1836,13.0
37.443,9.0
37.7026,12.0
37.9621,12.0
38.2218,15.0
38.4815,19.0
38.7412,80.0
39.0011,166.0
39.2609,40.0
39.5209,14.0
39.7809,14.0
40.0409,11.0
40.3011,15.0
40.5612,13.0
40.8215,9.0
41.0818,9.0
41.3421,14.0
41.6026,16.0
41.8631,24.0
42.1236,46.0
42.3843,18.0
42.645,13.0
42.9057,18.0
43.1665,15.0
43.4274,26.0
43.6884,108.0
43.9494,40.0
44.2105,19.0
44.4717,9.0
44.733,12.0
44.9943,12.0
45.2557,14.0
45.5171,24.0
45.7786,13.0
46.0403,9.0
46.3019,6.0
46.5637,12.0
46.8255,14.0
47.0874,15.0
47.3494,51.0
47.6115,170.0
47.8736,122.0
48.1358,26.0
48.3981,23.0
48.6605,14.0
48.923,11.0
49.1855,16.0
49.4481,12.0
49.7108,16.0
49.9736,21.0
50.2365,74.0
50.4994,62.0
50.7625,94.0
51.0256,45.0
51.2888,17.0
51.5521,14.0
51.8155,11.0
52.079,15.0
52.3426,12.0
52.6062,19.0
52.87,22.0
53.1338,52.0
53.3978,152.0
53.6618,30.0
53.9259,18.0
54.1901,14.0
54.4545,12.0
54.7189,14.0
54.9834,32.0
55.248,106.0
55.5127,69.0
55.7775,14.0
56.0424,7.0
56.3074,13.0
56.5725,13.0
56.8377,15.0
57.103,13.0
57.3685,26.0
57.634,74.0
57.8996,39.0
58.1654,19.0
58.4312,12.0
58.6972,12.0
58.9632,11.0
59.2294,11.0
59.4957,11.0
59.7621,14.0
60.0286,13.0
60.2952,9.0
60.562,11.0
60.8288,12.0
61.0958,16.0
61.3629,62.0
61.6301,54.0
61.8974,15.0
62.1649,16.0
62.4325,18.0
62.7002,13.0
62.968,13.0
63.2359,19.0
63.504,45.0
63.7722,26.0
64.0405,8.0
64.309,14.0
64.5776,18.0
64.8463,14.0
65.1151,13.0
65.3841,15.0
65.6532,19.0
65.9225,20.0
66.1919,13.0
66.4614,13.0
66.7311,11.0
67.0009,11.0
67.2708,14.0
67.5409,12.0
67.8112,8.0
68.0815,10.0
68.3521,10.0
68.6227,30.0
68.8935,34.0
69.1645,36.0
69.4356,16.0
69.7069,23.0
69.9783,57.0
70.2499,64.0
70.5216,29.0
70.7935,19.0
71.0656,24.0
71.3378,77.0
71.6102,43.0
71.8827,37.0
72.1554,30.0
72.4283,24.0
72.7013,19.0
72.9745,25.0
73.2479,24.0
73.5214,18.0
73.7951,18.0
74.069,7.0
74.3431,18.0
74.6173,15.0
74.8917,36.0
75.1663,31.0
75.4411,26.0
75.7161,20.0
75.9912,19.0
76.2665,10.0
76.5421,16.0
76.8178,20.0
77.0937,28.0
77.3698,25.0
77.6461,9.0
77.9226,13.0
78.1992,40.0
78.4761,44.0
78.7532,18.0
79.0305,18.0
79.308,15.0
79.5857,11.0
79.8636,12.0
80.1417,13.0
80.4201,14.0
80.6986,11.0
80.9774,9.0
81.2564,14.0
81.5356,8.0
81.815,13.0
82.0947,22.0
82.3746,28.0
82.6547,14.0
82.935,39.0
83.2156,32.0
83.4964,37.0
83.6241,38.0

File: N,N_Diethylpropane_1,3_Diammonium_Iodide.lbl_rescaled.xy
# Processed xy data with Haverford two-theta converted to LBL scale
two_theta,intensity
5.81234,7.0
6.06814,6.0
6.32395,10.0
6.57977,3.0
6.8356,8.0
7.09144,11.0
7.34728,7.0
7.60314,10.0
7.85901,12.0
8.11488,4.0
8.37077,7.0
8.62667,5.0
8.88257,7.0
9.1385,5.0
9.39443,7.0
9.65037,10.0
9.90633,5.0
10.1623,3.0
10.4183,2.0
10.6743,4.0
10.9303,3.0
11.1863,8.0
11.4424,5.0
11.6984,6.0
11.9545,3.0
12.2106,10.0
12.4667,12.0
12.7228,5.0
12.9789,4.0
13.2351,4.0
13.4912,3.0
13.7474,5.0
14.0036,5.0
14.2599,5.0
14.5161,6.0
14.7724,12.0
15.0287,7.0
15.285,5.0
15.5413,6.0
15.7976,7.0
16.054,5.0
16.3104,4.0
16.5668,5.0
16.8232,5.0
17.0797,5.0
17.3361,2.0
17.5926,7.0
17.8491,9.0
18.1057,10.0
18.3623,31.0
18.6188,11.0
18.8755,8.0
19.1321,6.0
19.3888,11.0
19.6455,7.0
19.9022,6.0
20.1589,6.0
20.4157,3.0
20.6725,6.0
20.9294,17.0
21.1862,22.0
21.4431,8.0
21.7,5.0
21.957,4.0
22.2139,2.0
22.4709,5.0
22.728,2.0
22.9851,9.0
23.2422,6.0
23.4993,9.0
23.7564,34.0
24.0136,10.0
24.2709,6.0
24.5281,3.0
24.7854,6.0
25.0428,6.0
25.3001,3.0
25.5575,6.0
25.815,5.0
26.0724,6.0
26.3299,7.0
26.5875,5.0
26.8451,16.0
27.1027,51.0
27.3603,75.0
27.618,29.0
27.8758,12.0
28.1335,7.0
28.3913,17.0
28.6492,21.0
28.9071,6.0
29.165,5.0
29.423,3.0
29.681,2.0
29.9391,12.0
30.1972,26.0
30.4553,9.0
30.7135,19.0
30.9717,6.0
31.23,19.0
31.4883,4.0
31.7467,4.0
32.0051,1.0
32.2635,7.0
32.522,3.0
32.7806,8.0
33.0392,4.0
33.2978,11.0
33.5565,45.0
33.8153,27.0
34.0741,7.0
34.3329,5.0
34.5918,6.0
34.8507,24.0
35.1097,6.0
35.3688,6.0
35.6279,15.0
35.887,14.0
36.1462,10.0
36.4055,3.0
36.6648,1.0
36.9241,6.0
37.1836,5.0
37.443,6.0
37.7026,35.0
37.9621,5.0
38.2218,7.0
38.4815,6.0
38.7412,4.0
39.0011,10.0
39.2609,33.0
39.5209,8.0
39.7809,3.0
40.0409,4.0
40.3011,6.0
40.5612,6.0
40.8215,29.0
41.0818,13.0
41.3421,3.0
41.6026,0.0
41.8631,1.0
42.1236,6.0
42.3843,4.0
42.645,16.0
42.9057,5.0
43.1665,5.0
43.4274,4.0
43.6884,8.0
43.9494,6.0
44.2105,3.0
44.4717,2.0
44.733,6.0
44.9943,6.0
45.2557,5.0
45.5171,14.0
45.7786,29.0
46.0403,5.0
46.3019,7.0
46.5637,12.0
46.8255,37.0
47.0874,9.0
47.3494,4.0
47.6115,6.0
47.8736,8.0
48.1358,9.0
48.3981,36.0
48.6605,13.0
48.923,10.0
49.1855,11.0
49.4481,10.0
49.7108,7.0
49.9736,6.0
50.2365,13.0
50.4994,8.0
50.7625,3.0
51.0256,6.0
51.2888,3.0
51.5521,10.0
51.8155,16.0
52.079,7.0
52.3426,4.0
52.6062,10.0
52.87,7.0
53.1338,8.0
53.3978,9.0
53.6618,5.0
53.9259,7.0
54.1901,6.0
54.4545,6.0
54.7189,5.0
54.9834,3.0
55.248,4.0
55.5127,7.0
55.7775,26.0
56.0424,6.0
56.3074,7.0
56.5725,12.0
56.8377,11.0
57.103,6.0
57.3685,8.0
57.634,5.0
57.8996,3.0
58.1654,3.0
58.4312,13.0
58.6972,7.0
58.9632,9.0
59.2294,5.0
59.4957,7.0
59.7621,11.0
60.0286,5.0
60.2952,11.0
60.562,11.0
60.8288,8.0
61.0958,9.0
61.3629,11.0
61.6301,9.0
61.8974,11.0
62.1649,3.0
62.4325,9.0
62.7002,20.0
62.968,5.0
63.2359,10.0
63.504,6.0
63.7722,17.0
64.0405,7.0
64.309,6.0
64.5776,3.0
64.8463,12.0
65.1151,14.0
65.3841,5.0
65.6532,7.0
65.9225,5.0
66.1919,6.0
66.4614,5.0
66.7311,9.0
67.0009,14.0
67.2708,9.0
67.5409,14.0
67.8112,6.0
68.0815,9.0
68.3521,8.0
68.6227,11.0
68.8935,11.0
69.1645,9.0
69.4356,13.0
69.7069,9.0
69.9783,8.0
70.2499,16.0
70.5216,6.0
70.7935,5.0
71.0656,16.0
71.3378,13.0
71.6102,7.0
71.8827,7.0
72.1554,7.0
72.4283,3.0
72.7013,2.0
72.9745,14.0
73.2479,13.0
73.5214,4.0
73.7951,9.0
74.069,4.0
74.3431,5.0
74.6173,7.0
74.8917,16.0
75.1663,12.0
75.4411,11.0
75.7161,7.0
75.9912,6.0
76.2665,3.0
76.5421,7.0
76.8178,5.0
77.0937,7.0
77.3698,6.0
77.6461,5.0
77.9226,5.0
78.1992,7.0
78.4761,3.0
78.7532,6.0
79.0305,6.0
79.308,5.0
79.5857,4.0
79.8636,3.0
80.1417,6.0
80.4201,3.0
80.6986,2.0
80.9774,6.0
81.2564,6.0
81.5356,8.0
81.815,13.0
82.0947,6.0
82.3746,4.0
82.6547,6.0
82.935,4.0
83.2156,6.0
83.4964,7.0
83.6241,6.0

File: N,N_Dimethylethane_1,2_Diammonium_Iodide.lbl_rescaled.xy
# Processed xy data with Haverford two-theta converted to LBL scale
two_theta,intensity
5.81234,6.0
6.06814,4.0
6.32395,6.0
6.57977,3.0
6.8356,6.0
7.09144,6.0
7.34728,3.0
7.60314,3.0
7.85901,5.0
8.11488,7.0
8.37077,3.0
8.62667,4.0
8.88257,4.0
9.1385,3.0
9.39443,5.0
9.65037,6.0
9.90633,6.0
10.1623,2.0
10.4183,5.0
10.6743,7.0
10.9303,7.0
11.1863,0.0
11.4424,4.0
11.6984,3.0
11.9545,5.0
12.2106,3.0
12.4667,6.0
12.7228,5.0
12.9789,4.0
13.2351,3.0
13.4912,4.0
13.7474,4.0
14.0036,3.0
14.2599,6.0
14.5161,2.0
14.7724,3.0
15.0287,4.0
15.285,6.0
15.5413,4.0
15.7976,6.0
16.054,6.0
16.3104,6.0
16.5668,7.0
16.8232,3.0
17.0797,4.0
17.3361,3.0
17.5926,3.0
17.8491,6.0
18.1057,1.0
18.3623,1.0
18.6188,8.0
18.8755,3.0
19.1321,10.0
19.3888,10.0
19.6455,8.0
19.9022,10.0
20.1589,4.0
20.4157,5.0
20.6725,7.0
20.9294,6.0
21.1862,3.0
21.4431,3.0
21.7,6.0
21.957,2.0
22.2139,3.0
22.4709,6.0
22.728,9.0
22.9851,21.0
23.2422,8.0
23.4993,7.0
23.7564,2.0
24.0136,4.0
24.2709,13.0
24.5281,17.0
24.7854,26.0
25.0428,14.0
25.3001,14.0
25.5575,5.0
25.815,4.0
26.0724,1.0
26.3299,4.0
26.5875,15.0
26.8451,14.0
27.1027,19.0
27.3603,19.0
27.618,30.0
27.8758,6.0
28.1335,16.0
28.3913,14.0
28.6492,18.0
28.9071,31.0
29.165,4.0
29.423,4.0
29.681,9.0
29.9391,4.0
30.1972,4.0
30.4553,6.0
30.7135,41.0
30.9717,19.0
31.23,5.0
31.4883,3.0
31.7467,8.0
32.0051,13.0
32.2635,4.0
32.522,12.0
32.7806,13.0
33.0392,8.0
33.2978,8.0
33.5565,3.0
33.8153,8.0
34.0741,15.0
34.3329,4.0
34.5918,1.0
34.8507,7.0
35.1097,1.0
35.3688,6.0
35.6279,15.0
35.887,7.0
36.1462,4.0
36.4055,11.0
36.6648,13.0
36.9241,7.0
37.1836,4.0
37.443,8.0
37.7026,5.0
37.9621,7.0
38.2218,2.0
38.4815,6.0
38.7412,12.0
39.0011,5.0
39.2609,3.0
39.5209,7.0
39.7809,4.0
40.0409,9.0
40.3011,2.0
40.5612,9.0
40.8215,6.0
41.0818,6.0
41.3421,13.0
41.6026,21.0
41.8631,3.0
42.1236,5.0
42.3843,11.0
42.645,4.0
42.9057,1.0
43.1665,8.0
43.4274,6.0
43.6884,4.0
43.9494,7.0
44.2105,5.0
44.4717,11.0
44.733,3.0
44.9943,2.0
45.2557,5.0
45.5171,7.0
45.7786,10.0
46.0403,6.0
46.3019,8.0
46.5637,16.0
46.8255,13.0
47.0874,12.0
47.3494,6.0
47.6115,16.0
47.8736,9.0
48.1358,12.0
48.3981,5.0
48.6605,6.0
48.923,2.0
49.1855,8.0
49.4481,15.0
49.7108,17.0
49.9736,5.0
50.2365,1.0
50.4994,2.0
50.7625,7.0
51.0256,5.0
51.2888,6.0
51.5521,8.0
51.8155,5.0
52.079,7.0
52.3426,6.0
52.6062,4.0
52.87,3.0
53.1338,3.0
53.3978,4.0
53.6618,6.0
53.9259,4.0
54.1901,6.0
54.4545,9.0
54.7189,3.0
54.9834,4.0
55.248,5.0
55.5127,4.0
55.7775,6.0
56.0424,8.0
56.3074,6.0
56.5725,4.0
56.8377,4.0
57.103,6.0
57.3685,4.0
57.634,4.0
57.8996,9.0
58.1654,8.0
58.4312,6.0
58.6972,3.0
58.9632,5.0
59.2294,7.0
59.4957,8.0
59.7621,6.0
60.0286,9.0
60.2952,6.0
60.562,11.0
60.8288,6.0
61.0958,4.0
61.3629,9.0
61.6301,4.0
61.8974,8.0
62.1649,7.0
62.4325,8.0
62.7002,11.0
62.968,8.0
63.2359,8.0
63.504,7.0
63.7722,7.0
64.0405,8.0
64.309,8.0
64.5776,5.0
64.8463,3.0
65.1151,5.0
65.3841,6.0
65.6532,7.0
65.9225,8.0
66.1919,4.0
66.4614,8.0
66.7311,8.0
67.0009,4.0
67.2708,8.0
67.5409,6.0
67.8112,7.0
68.0815,7.0
68.3521,9.0
68.6227,10.0
68.8935,4.0
69.1645,4.0
69.4356,13.0
69.7069,11.0
69.9783,5.0
70.2499,6.0
70.5216,5.0
70.7935,1.0
71.0656,4.0
71.3378,5.0
71.6102,7.0
71.8827,7.0
72.1554,9.0
72.4283,7.0
72.7013,2.0
72.9745,7.0
73.2479,5.0
73.5214,6.0
73.7951,6.0
74.069,7.0
74.3431,8.0
74.6173,2.0
74.8917,7.0
75.1663,2.0
75.4411,8.0
75.7161,8.0
75.9912,8.0
76.2665,5.0
76.5421,2.0
76.8178,6.0
77.0937,4.0
77.3698,3.0
77.6461,6.0
77.9226,2.0
78.1992,5.0
78.4761,0.0
78.7532,4.0
79.0305,4.0
79.308,7.0
79.5857,11.0
79.8636,8.0
80.1417,4.0
80.4201,4.0
80.6986,8.0
80.9774,10.0
81.2564,9.0
81.5356,2.0
81.815,3.0
82.0947,5.0
82.3746,4.0
82.6547,7.0
82.935,7.0
83.2156,4.0
83.4964,2.0
83.6241,7.0

File: n-Dodcylammonium_Bromide.lbl_rescaled.xy
# Processed xy data with Haverford two-theta converted to LBL scale
two_theta,intensity
5.81234,1778.0
6.06814,11.0
6.32395,6.0
6.57977,6.0
6.8356,7.0
7.09144,7.0
7.34728,7.0
7.60314,8.0
7.85901,6.0
8.11488,7.0
8.37077,6.0
8.62667,4.0
8.88257,5.0
9.1385,8.0
9.39443,7.0
9.65037,4.0
9.90633,7.0
10.1623,2.0
10.4183,7.0
10.6743,7.0
10.9303,12.0
11.1863,90.0
11.4424,801.0
11.6984,105.0
11.9545,7.0
12.2106,5.0
12.4667,3.0
12.7228,4.0
12.9789,8.0
13.2351,2.0
13.4912,3.0
13.7474,8.0
14.0036,7.0
14.2599,3.0
14.5161,7.0
14.7724,5.0
15.0287,1.0
15.285,4.0
15.5413,2.0
15.7976,5.0
16.054,6.0
16.3104,9.0
16.5668,8.0
16.8232,18.0
17.0797,82.0
17.3361,1490.0
17.5926,55.0
17.8491,13.0
18.1057,7.0
18.3623,3.0
18.6188,7.0
18.8755,7.0
19.1321,3.0
19.3888,5.0
19.6455,2.0
19.9022,5.0
20.1589,8.0
20.4157,12.0
20.6725,14.0
20.9294,11.0
21.1862,10.0
21.4431,5.0
21.7,10.0
21.957,7.0
22.2139,8.0
22.4709,11.0
22.728,14.0
22.9851,69.0
23.2422,1109.0
23.4993,51.0
23.7564,17.0
24.0136,17.0
24.2709,8.0
24.5281,8.0
24.7854,20.0
25.0428,14.0
25.3001,21.0
25.5575,29.0
25.815,46.0
26.0724,9.0
26.3299,5.0
26.5875,9.0
26.8451,5.0
27.1027,10.0
27.3603,4.0
27.618,20.0
27.8758,6.0
28.1335,13.0
28.3913,36.0
28.6492,25.0
28.9071,57.0
29.165,552.0
29.423,43.0
29.681,29.0
29.9391,25.0
30.1972,14.0
30.4553,12.0
30.7135,8.0
30.9717,0.0
31.23,13.0
31.4883,7.0
31.7467,7.0
32.0051,12.0
32.2635,11.0
32.522,12.0
32.7806,43.0
33.0392,28.0
33.2978,18.0
33.5565,26.0
33.8153,8.0
34.0741,6.0
34.3329,18.0
34.5918,27.0
34.8507,30.0
35.1097,165.0
35.3688,28.0
35.6279,7.0
35.887,13.0
36.1462,9.0
36.4055,7.0
36.6648,14.0
36.9241,16.0
37.1836,10.0
37.443,9.0
37.7026,16.0
37.9621,13.0
38.2218,49.0
38.4815,35.0
38.7412,26.0
39.0011,21.0
39.2609,10.0
39.5209,13.0
39.7809,21.0
40.0409,12.0
40.3011,7.0
40.5612,6.0
40.8215,15.0
41.0818,18.0
41.3421,49.0
41.6026,16.0
41.8631,13.0
42.1236,10.0
42.3843,19.0
42.645,13.0
42.9057,14.0
43.1665,11.0
43.4274,13.0
43.6884,10.0
43.9494,60.0
44.2105,58.0
44.4717,35.0
44.733,11.0
44.9943,11.0
45.2557,11.0
45.5171,19.0
45.7786,14.0
46.0403,12.0
46.3019,11.0
46.5637,13.0
46.8255,8.0
47.0874,11.0
47.3494,11.0
47.6115,10.0
47.8736,11.0
48.1358,10.0
48.3981,7.0
48.6605,8.0
48.923,9.0
49.1855,8.0
49.4481,9.0
49.7108,13.0
49.9736,13.0
50.2365,20.0
50.4994,14.0
50.7625,15.0
51.0256,13.0
51.2888,15.0
51.5521,13.0
51.8155,10.0
52.079,10.0
52.3426,10.0
52.6062,7.0
52.87,8.0
53.1338,7.0
53.3978,11.0
53.6618,9.0
53.9259,11.0
54.1901,12.0
54.4545,16.0
54.7189,9.0
54.9834,14.0
55.248,12.0
55.5127,14.0
55.7775,13.0
56.0424,18.0
56.3074,35.0
56.5725,20.0
56.8377,15.0
57.103,13.0
57.3685,25.0
57.634,51.0
57.8996,17.0
58.1654,10.0
58.4312,7.0
58.6972,11.0
58.9632,10.0
59.2294,11.0
59.4957,14.0
59.7621,11.0
60.0286,11.0
60.2952,11.0
60.562,14.0
60.8288,6.0
61.0958,11.0
61.3629,9.0
61.6301,8.0
61.8974,10.0
62.1649,8.0
62.4325,13.0
62.7002,34.0
62.968,26.0
63.2359,13.0
63.504,8.0
63.7722,9.0
64.0405,12.0
64.309,8.0
64.5776,7.0
64.8463,9.0
65.1151,11.0
65.3841,6.0
65.6532,9.0
65.9225,11.0
66.1919,20.0
66.4614,12.0
66.7311,7.0
67.0009,13.0
67.2708,14.0
67.5409,10.0
67.8112,7.0
68.0815,7.0
68.3521,10.0
68.6227,8.0
68.8935,10.0
69.1645,21.0
69.4356,21.0
69.7069,10.0
69.9783,5.0
70.2499,11.0
70.5216,11.0
70.7935,10.0
71.0656,12.0
71.3378,8.0
71.6102,8.0
71.8827,13.0
72.1554,10.0
72.4283,10.0
72.7013,9.0
72.9745,9.0
73.2479,8.0
73.5214,7.0
73.7951,12.0
74.069,7.0
74.3431,11.0
74.6173,10.0
74.8917,6.0
75.1663,3.0
75.4411,10.0
75.7161,9.0
75.9912,6.0
76.2665,12.0
76.5421,10.0
76.8178,5.0
77.0937,8.0
77.3698,13.0
77.6461,16.0
77.9226,5.0
78.1992,11.0
78.4761,5.0
78.7532,6.0
79.0305,6.0
79.308,9.0
79.5857,3.0
79.8636,10.0
80.1417,10.0
80.4201,6.0
80.6986,4.0
80.9774,10.0
81.2564,11.0
81.5356,7.0
81.815,7.0
82.0947,8.0
82.3746,6.0
82.6547,5.0
82.935,7.0
83.2156,8.0
83.4964,6.0
83.6241,9.0