Folder: rapid/data/xrd/xy (part 6)

File: 2019-05-23TO2_12_25.720560+00_00_LBL_B1.xy
'Id: "" Comment: "Integrate frame 06062019_neo_Pentyl_02_002.gfrmwith cursor Wedge Cursor #2" Operator: "UC Berkeley" Anode: "Co" Scantype: "TwoTheta" TimePerStep: "600"
14.335 -0.0251195
14.51 -0.0245812
14.685 0.0286018
14.86 0.037601
15.035 0.0318961
15.21 0.0240586
15.385 -0.0105993
15.56 -0.00559384
15.735 0.0217328
15.91 0.0505648
16.085 0.0415203
16.26 0.0530971
16.435 0.0435804
16.61 0.0633794
16.785 0.0678262
16.96 0.0690664
17.135 0.0685117
17.31 0.0844767
17.485 0.0819327
17.66 0.0801982
17.835 0.0641565
18.01 0.0363845
18.185 0.0538594
18.36 0.0623789
18.535 0.0521465
18.71 0.0121928
18.885 0.063948
19.06 0.0471454
19.235 0.0394844
19.41 0.0770694
19.585 0.0359358
19.76 -0.00797785
19.935 0.0398657
20.11 0.0173891
20.285 0.065005
20.46 0.0597528
20.635 0.0293961
20.81 0.023187
20.985 0.0174235
21.16 0.0083784
21.335 0.0306969
21.51 0.0637759
21.685 0.0513058
21.86 0.00726195
22.035 0.0503653
22.21 0.0442635
22.385 0.0414857
22.56 0.0280906
22.735 0.000228641
22.91 -0.00752687
23.085 0.0261315
23.26 0.0290686
23.435 -0.0113907
23.61 0.0257909
23.785 0.0456851
23.96 0.0402086
24.135 0.0436262
24.31 0.0376033
24.485 0.0292248
24.66 0.0539574
24.835 0.0214217
25.01 -0.00422596
25.185 -0.0176379
25.36 0.036928
25.535 0.027554
25.71 0.000875461
25.885 0.0216423
26.06 -0.00212248
26.235 0.000493553
26.41 0.00474957
26.585 0.0143579
26.76 0.0477558
26.935 0.00889516
27.11 0.0531696
27.285 0.0521751
27.46 0.0159524
27.635 0.00794235
27.81 0.0156932
27.985 0.0475332
28.16 0.0215409
28.335 0.00925413
28.51 0.00222864
28.685 0.0148453
28.86 0.0147788
29.035 0.057903
29.21 0.00973409
29.385 0.0542392
29.56 0.0808761
29.735 0.0796709
29.91 0.0157452
30.085 0.0994529
30.26 0.10382
30.435 0.0180445
30.61 -0.00173278
30.785 0.0265577
30.96 0.0186467
31.135 -0.00550618
31.31 0.00537595
31.485 0.0113457
31.66 0.0157687
31.835 0.0270421
32.01 0.0166118
32.185 0.0210913
32.36 0.00142509
32.535 0.024097
32.71 0.0124084
32.885 0.048496
33.06 0.0617346
33.235 0.0515774
33.41 0.0487269
33.585 0.0260571
33.76 0.0228473
33.935 0.0258917
34.11 0.036456
34.285 0.0399592
34.46 0.130055
34.635 0.103789
34.81 0.0374621
34.985 0.0549531
35.16 0.0452902
35.335 0.0225991
35.51 0.0247478
35.685 0.0509597
35.86 0.0380682
36.035 0.0565097
36.21 0.0505423
36.385 0.0412716
36.56 0.0160724
36.735 0.0120056
36.91 -0.0156683
37.085 0.00545724
37.26 0.00822189
37.435 0.00877344
37.61 0.00420731
37.785 0.00827779
37.96 0.00373946
38.135 -0.00814315
38.31 0.00531437
38.485 0.00186575
38.66 0.00363827
38.835 -0.00953189
39.01 0.00200237
39.185 -0.0101532
39.36 0.00173317
39.535 -0.00540813
39.71 0.0102863
39.885 0.0321004
40.06 0.0379271
40.235 0.00199164
40.41 -0.00524573
40.585 0.010116
40.76 -0.00537919
40.935 -0.0178384
41.11 -0.000595748
41.285 0.00717953
41.46 -0.00727119
41.635 -0.00905825
41.81 0.00220611
41.985 -0.00900128
42.16 0.0124837
42.335 -0.000306061
42.51 0.0115123
42.685 0.00836263
42.86 -0.000900269
43.035 0.00283663
43.21 -6.76751e-05
43.385 -0.0104545
43.56 -0.00465384
43.735 0.0059534
43.91 0.00496972
44.085 0.031531
44.26 0.0345882
44.435 0.0297848
44.61 0.0383481
44.785 0.0554978
44.96 0.22611
45.135 0.837144
45.31 0.362033
45.485 0.0325469
45.66 0.00539859
45.835 0.0291372
46.01 0.099673
46.185 0.401796
46.36 0.331877
46.535 0.0601501
46.71 0.0103251
46.885 -0.00160225
47.06 -0.0112434
47.235 -0.00327457
47.41 0.00405661
47.585 -0.000468137
47.76 0.00608157
47.935 0.0049873
48.11 0.00161597
48.285 0.0023261
48.46 0.0152704
48.635 0.0583034
48.81 0.105239
48.985 0.0592475
49.16 -0.00111301
49.335 -0.00753768
49.51 0.00903299
49.685 -0.00670424
49.86 -0.00218027
50.035 -0.0115855
50.21 -0.0042301
50.385 -0.00355232
50.56 0.000548851
50.735 0.00175895
50.91 0.0116055
51.085 0.00587713
51.26 -0.00909941
51.435 -0.00258214
51.61 -0.00870916
51.785 0.00654747
51.96 -0.0129689
52.135 -0.00167432
52.31 -0.00324927
52.485 -0.000760086
52.66 -0.00108927
52.835 0.0122093
53.01 0.0212536
53.185 0.0167491
53.36 0.0113987
53.535 0.000195239
53.71 0.00904182
53.885 0.00273914
54.06 -0.00641856
54.235 0.00173202
54.41 0.0103551
54.585 -0.00589082
54.76 0.00112862
54.935 0.0151861
55.11 -0.00179046
55.285 0.000699994
55.46 -0.0178637
55.635 0.0115648
55.81 0.0123082
55.985 0.0309407
56.16 0.0165109
56.335 0.0196977
56.51 -0.00168728
56.685 0.00491877
56.86 0.00286389
57.035 -0.010131
57.21 0.00968149
57.385 -0.00352257
57.56 -0.0114407
57.735 0.0013218
57.91 0.000951182
58.085 0.00711069
58.26 0.011115
58.435 -0.00264868
58.61 0.00575453
58.785 0.00866619
58.96 0.00557774
59.135 0.0127599
59.31 0.00563436
59.485 0.00287973
59.66 0.0229193
59.835 0.00863589
60.01 0.0059971
60.185 0.0162611
60.36 0.0120858
60.535 0.0132594
60.71 -0.00263893
60.885 0.00407646
61.06 0.00747736
61.235 0.0537139
61.41 0.391453
61.585 0.61117
61.76 0.401669
61.935 0.107482
62.11 0.00741808
62.285 0.00998886
62.46 0.00382786
62.635 0.00885069
62.81 0.00156291
62.985 0.0056109
63.16 0.00855232
63.335 -0.000550806
63.51 0.00960405
63.685 0.0115166
63.86 -0.00776518
64.035 0.0053164
64.21 0.0176256
64.385 -0.00486052
64.56 0.00176739
64.735 -0.00897763
64.91 0.00342108
65.085 -0.00094993
65.26 -0.00399001
65.435 0.00200089
65.61 -0.00513804
65.785 -0.00185758
65.96 -0.0143133
66.135 0.00762168
66.31 -0.0102235
66.485 0.00294217
66.66 0.00968433
66.745 -0.0220921

File: 2019-05-23TO2_12_25.720560+00_00_LBL_B5.xy
'Id: "" Comment: "Integrate frame 06062019_neo_Pentyl_05_002.gfrmwith cursor Wedge Cursor #2" Operator: "UC Berkeley" Anode: "Co" Scantype: "TwoTheta" TimePerStep: "600"
14.29 -0.0256896
14.465 -0.0140132
14.64 0.015209
14.815 0.00124083
14.99 0.0132215
15.165 0.0118545
15.34 0.0276932
15.515 0.0117793
15.69 -0.0244118
15.865 -0.0086594
16.04 0.0219299
16.215 0.0287761
16.39 0.0106003
16.565 0.0516642
16.74 0.0254938
16.915 0.0114192
17.09 0.0595011
17.265 0.0231302
17.44 0.00721427
17.615 0.0307586
17.79 0.0089931
17.965 -0.0100451
18.14 0.0216427
18.315 -0.0125262
18.49 0.0679601
18.665 -0.00731633
18.84 0.0365784
19.015 0.0126963
19.19 -0.0107575
19.365 0.00729492
19.54 0.0215374
19.715 0.0180266
19.89 -0.0174068
20.065 -0.00352222
20.24 0.000730628
20.415 0.0101864
20.59 0.00725056
20.765 0.00856933
20.94 0.00404136
21.115 0.0153098
21.29 0.0105347
21.465 -0.00754154
21.64 0.0490555
21.815 0.00610808
21.99 0.0200146
22.165 0.0645977
22.34 0.104243
22.515 0.205099
22.69 0.0604181
22.865 0.0662077
23.04 0.0715994
23.215 -0.0236723
23.39 0.0216395
23.565 -0.000967907
23.74 0.0356745
23.915 0.0445768
24.09 0.114297
24.265 0.118042
24.44 0.00821405
24.615 0.0265238
24.79 -0.00519402
24.965 0.0189697
25.14 0.0193896
25.315 0.000733435
25.49 0.0128337
25.665 0.0315454
25.84 0.029301
26.015 0.0134366
26.19 0.0601956
26.365 0.0202844
26.54 0.0102658
26.715 0.00563418
26.89 0.00338796
27.065 0.0323518
27.24 0.0575027
27.415 0.127042
27.59 0.0556861
27.765 0.0334591
27.94 0.0180832
28.115 0.0561585
28.29 0.112792
28.465 0.0557172
28.64 0.123198
28.815 0.0464741
28.99 0.00656211
29.165 0.0080139
29.34 -0.0019875
29.515 0.0478637
29.69 0.0801852
29.865 0.334881
30.04 2.13836
30.215 1.21834
30.39 0.458562
30.565 -0.00786508
30.74 0.0099415
30.915 0.132753
31.09 0.0667426
31.265 0.0195542
31.44 0.0807276
31.615 -0.0106557
31.79 0.0911093
31.965 0.0959402
32.14 0.0429651
32.315 0.381871
32.49 0.721617
32.665 0.241956
32.84 0.282828
33.015 0.191896
33.19 0.0758174
33.365 -0.00642407
33.54 0.196414
33.715 0.121555
33.89 0.171939
34.065 0.163853
34.24 0.107007
34.415 0.327278
34.59 0.101711
34.765 -0.0122266
34.94 0.155198
35.115 0.214134
35.29 0.0312983
35.465 0.00308985
35.64 0.02541
35.815 0.121382
35.99 0.212711
36.165 0.218179
36.34 0.0154542
36.515 -0.00230376
36.69 0.0156111
36.865 0.391186
37.04 0.170244
37.215 0.0255459
37.39 0.0364733
37.565 0.134493
37.74 0.466091
37.915 0.432173
38.09 0.10052
38.265 -0.00114368
38.44 0.0281906
38.615 0.0395729
38.79 0.0235282
38.965 0.015265
39.14 0.00287088
39.315 0.067307
39.49 0.0373923
39.665 0.0484539
39.84 0.174235
40.015 0.127935
40.19 0.0157239
40.365 0.0930492
40.54 0.071226
40.715 0.0195577
40.89 0.162873
41.065 0.109255
41.24 0.15287
41.415 0.0416613
41.59 0.0623423
41.765 0.123983
41.94 0.0276581
42.115 0.0092578
42.29 -0.0146342
42.465 -0.00347265
42.64 0.0348389
42.815 0.0509204
42.99 0.0449995
43.165 0.0318902
43.34 0.0157989
43.515 0.0300467
43.69 0.0247363
43.865 0.00569588
44.04 0.0727357
44.215 0.0475798
44.39 -0.00620088
44.565 0.0293571
44.74 0.142472
44.915 0.20772
45.09 0.247446
45.265 0.085674
45.44 0.0261928
45.615 0.185169
45.79 0.139377
45.965 0.0172422
46.14 -0.00560053
46.315 0.000593276
46.49 0.00924399
46.665 0.0849127
46.84 0.0999544
47.015 0.103492
47.19 0.0488918
47.365 0.0706967
47.54 0.142542
47.715 0.0732122
47.89 0.0643388
48.065 0.0628422
48.24 -0.00881641
48.415 -0.00508387
48.59 0.0063426
48.765 0.00183132
48.94 0.00568098
49.115 0.00214873
49.29 0.021281
49.465 0.0685869
49.64 0.0295059
49.815 0.00525767
49.99 0.00333175
50.165 0.0324425
50.34 0.0407028
50.515 0.0252194
50.69 0.095123
50.865 0.224367
51.04 0.10778
51.215 0.0208495
51.39 0.00144098
51.565 0.00448795
51.74 -0.000367782
51.915 0.0104212
52.09 0.0194665
52.265 0.0283439
52.44 0.0278367
52.615 0.02812
52.79 0.0114722
52.965 0.0283195
53.14 0.0370344
53.315 0.0843647
53.49 0.0614747
53.665 0.0442727
53.84 0.0286501
54.015 0.0366148
54.19 0.0225326
54.365 0.0349482
54.54 -0.00101805
54.715 -0.000720393
54.89 -0.00897457
55.065 0.0113285
55.24 0.0146435
55.415 0.00481886
55.59 0.0115446
55.765 0.00970756
55.94 0.0236276
56.115 0.0525441
56.29 0.0639877
56.465 0.0332821
56.64 0.0624318
56.815 0.0249219
56.99 0.0138955
57.165 0.00358397
57.34 0.00537484
57.515 -0.00640959
57.69 -0.00279639
57.865 0.0237849
58.04 0.0173368
58.215 0.0212512
58.39 0.0417974
58.565 0.00490616
58.74 0.00194751
58.915 0.0140832
59.09 0.0128921
59.265 0.105511
59.44 0.357264
59.615 0.0473282
59.79 -0.0097028
59.965 -0.000523093
60.14 -0.00610281
60.315 -0.00288577
60.49 0.0153727
60.665 0.0045532
60.84 0.00174786
61.015 0.0139374
61.19 0.00436468
61.365 -0.00597267
61.54 -0.00778487
61.715 -0.00520862
61.89 0.00804529
62.065 0.0275902
62.24 0.0500488
62.415 0.0355281
62.59 0.0272673
62.765 0.00627835
62.94 -0.00684737
63.115 -0.0131146
63.29 -0.0014529
63.465 -0.00360729
63.64 0.0106123
63.815 0.0229165
63.99 0.00997346
64.165 0.0148785
64.34 0.0105947
64.515 0.00654223
64.69 0.00398356
64.865 0.0199407
65.04 0.0156093
65.215 -0.00665384
65.39 0.000627241
65.565 0.00378274
65.74 0.00626814
65.915 -0.00955614
65.93 -0.0152704

File: 2019-05-23TO2_12_25.720560+00_00_LBL_E1.xy
'Id: "" Comment: "Integrate frame 06062019_neo_Pentyl_03_002.gfrmwith cursor Wedge Cursor #3" Operator: "UC Berkeley" Anode: "Co" Scantype: "TwoTheta" TimePerStep: "600"
14.32 -0.0255923
14.495 0.0116323
14.67 -0.0246017
14.845 0.0545655
15.02 0.0374867
15.195 0.0272446
15.37 0.0256225
15.545 0.0145851
15.72 -0.0227206
15.895 0.0329646
16.07 0.0554662
16.245 0.00718384
16.42 0.0141157
16.595 -0.0134349
16.77 0.0234283
16.945 0.0182151
17.12 0.0334732
17.295 0.0182522
17.47 0.0377883
17.645 0.0154049
17.82 0.0489473
17.995 0.0419585
18.17 0.0678757
18.345 0.00144147
18.52 0.0351964
18.695 0.0336675
18.87 0.020018
19.045 0.0139091
19.22 0.0213109
19.395 0.034892
19.57 0.00583871
19.745 0.0421535
19.92 0.0147685
20.095 0.00089665
20.27 0.010994
20.445 0.00848518
20.62 0.0400932
20.795 0.010832
20.97 0.0239993
21.145 0.0161482
21.32 0.0218949
21.495 0.0334158
21.67 0.00567123
21.845 0.0193403
22.02 0.0533925
22.195 0.0269155
22.37 0.14307
22.545 0.207987
22.72 0.0662141
22.895 0.112473
23.07 0.0419627
23.245 0.0289094
23.42 0.0398457
23.595 0.0968902
23.77 0.0916248
23.945 0.0337745
24.12 -0.00105101
24.295 0.0205446
24.47 0.0268639
24.645 0.0224994
24.82 0.014664
24.995 0.0283104
25.17 0.0346505
25.345 0.0152614
25.52 -0.00257632
25.695 0.0455357
25.87 0.0516902
26.045 0.0433045
26.22 -0.000603272
26.395 0.0547963
26.57 0.0439757
26.745 0.0474343
26.92 0.0180298
27.095 0.0324942
27.27 0.106818
27.445 0.304882
27.62 0.400877
27.795 0.0637276
27.97 0.0443482
28.145 0.0345928
28.32 0.0411573
28.495 0.0115206
28.67 0.0187492
28.845 0.0183853
29.02 0.0224834
29.195 0.00916634
29.37 0.0220142
29.545 -0.0229038
29.72 -0.00214769
29.895 0.0176426
30.07 0.00868205
30.245 0.0396366
30.42 0.0297524
30.595 0.0285835
30.77 0.0171837
30.945 0.0492074
31.12 0.327417
31.295 0.208389
31.47 0.116118
31.645 0.243264
31.82 0.490542
31.995 0.214187
32.17 0.292936
32.345 0.314303
32.52 0.557691
32.695 0.284707
32.87 0.527639
33.045 0.145616
33.22 0.113944
33.395 0.278938
33.57 0.202113
33.745 0.129383
33.92 0.210521
34.095 -0.00666999
34.27 0.0165809
34.445 0.139403
34.62 0.339956
34.795 0.0682333
34.97 -0.0130762
35.145 -0.0163202
35.32 0.020743
35.495 0.302028
35.67 0.36241
35.845 0.0698695
36.02 0.0806604
36.195 0.0565423
36.37 0.0988277
36.545 0.296297
36.72 1.09578
36.895 0.456061
37.07 0.0746789
37.245 0.0119377
37.42 0.0144004
37.595 0.0142473
37.77 0.0669858
37.945 0.180954
38.12 0.28676
38.295 0.32975
38.47 0.115993
38.645 0.0210343
38.82 0.079906
38.995 0.114141
39.17 0.213166
39.345 0.20096
39.52 0.131571
39.695 0.133247
39.87 0.116823
40.045 0.175428
40.22 0.0498608
40.395 -0.00598543
40.57 0.00167353
40.745 0.00523495
40.92 0.0702019
41.095 0.0240547
41.27 -0.00136493
41.445 0.0284451
41.62 0.0329163
41.795 0.0275347
41.97 0.0142127
42.145 0.00875078
42.32 0.0145928
42.495 -0.00281651
42.67 -0.010718
42.845 -0.00776008
43.02 -0.011098
43.195 -0.00486864
43.37 0.00261749
43.545 0.00901425
43.72 0.0319275
43.895 0.010786
44.07 0.000207625
44.245 0.00861203
44.42 0.0033192
44.595 0.0805108
44.77 0.13346
44.945 0.228682
45.12 0.358265
45.295 0.166693
45.47 0.282211
45.645 0.204072
45.82 0.147606
45.995 0.169506
46.17 0.109064
46.345 0.24361
46.52 0.29805
46.695 0.197477
46.87 0.118342
47.045 0.00765994
47.22 -0.00993196
47.395 0.0285212
47.57 0.0430222
47.745 -0.00355396
47.92 -0.0153033
48.095 0.0103877
48.27 0.0601973
48.445 0.156686
48.62 0.107949
48.795 0.0132347
48.97 0.0205024
49.145 0.0017202
49.32 -0.017306
49.495 0.00250821
49.67 0.0353611
49.845 0.0658097
50.02 0.0577506
50.195 0.0701465
50.37 0.191913
50.545 0.326608
50.72 0.224087
50.895 0.178688
51.07 0.1424
51.245 0.171982
51.42 0.090458
51.595 0.0733743
51.77 0.0476333
51.945 0.0592383
52.12 0.13112
52.295 0.0972882
52.47 0.0791529
52.645 0.126604
52.82 0.164289
52.995 0.0739716
53.17 0.0343754
53.345 0.0228015
53.52 0.0349468
53.695 0.0476264
53.87 0.0547755
54.045 0.0743525
54.22 0.0428551
54.395 0.0160158
54.57 -0.00259777
54.745 0.00115207
54.92 -0.00502056
55.095 -0.0157117
55.27 -0.0160417
55.445 -0.000939952
55.62 -0.00840248
55.795 0.0192022
55.97 0.0100536
56.145 0.00693045
56.32 0.037009
56.495 0.120511
56.67 0.14276
56.845 0.135361
57.02 0.107016
57.195 0.0407776
57.37 0.0216404
57.545 -0.00103945
57.72 -0.00881447
57.895 0.0106191
58.07 0.00517286
58.245 -0.00737893
58.42 -0.00471475
58.595 0.0038685
58.77 0.0166124
58.945 0.0129457
59.12 0.0187357
59.295 0.0323243
59.47 0.0160833
59.645 0.00339717
59.82 -0.00677482
59.995 0.0100613
60.17 0.00637071
60.345 0.0416441
60.52 0.0647813
60.695 0.0436344
60.87 0.0662543
61.045 0.0726738
61.22 0.0321366
61.395 0.0285647
61.57 0.0810758
61.745 0.103229
61.92 0.130154
62.095 0.043179
62.27 0.0229727
62.445 0.0130657
62.62 0.0287726
62.795 0.028171
62.97 0.0452555
63.145 0.036917
63.32 0.0242308
63.495 0.00425707
63.67 -0.0098051
63.845 -0.00766777
64.02 -0.00505204
64.195 0.0159493
64.37 0.0130126
64.545 -0.00107362
64.72 0.00859422
64.895 0.0103505
65.07 0.00458683
65.245 -0.0073421
65.42 -0.0107632
65.595 0.000111012
65.77 -0.00135698
65.945 -0.00457196
66.12 0.00544336
66.295 0.046358
66.47 0.0369483
66.645 0.00847737
66.79 -0.0167256

File: 2019-05-23TO2_12_25.720560+00_00_LBL_G1.xy
'Id: "" Comment: "Integrate frame 06062019_neo_Pentyl_04_002.gfrmwith cursor Wedge Cursor #1" Operator: "UC Berkeley" Anode: "Co" Scantype: "TwoTheta" TimePerStep: "600"
14.125 -0.0254035
14.305 -0.00439893
14.485 -2.24838e-05
14.665 0.0580588
14.845 0.0905896
15.025 0.0530074
15.205 0.031576
15.385 0.00918318
15.565 0.0461271
15.745 0.0167371
15.925 0.0456781
16.105 0.0210871
16.285 -0.0047535
16.465 0.0239182
16.645 0.0479033
16.825 0.0332125
17.005 0.0169028
17.185 0.0181506
17.365 0.0325413
17.545 0.0166111
17.725 0.00525725
17.905 0.0315649
18.085 0.0250726
18.265 0.0120063
18.445 0.0148728
18.625 0.0214443
18.805 -0.0160073
18.985 0.00105598
19.165 0.0148714
19.345 0.0491056
19.525 0.0138603
19.705 0.00971461
19.885 -0.00956034
20.065 0.00813854
20.245 0.00209089
20.425 0.00228706
20.605 -0.0189614
20.785 -0.000586127
20.965 0.0318015
21.145 0.0317143
21.325 0.0266601
21.505 0.0102229
21.685 0.0277079
21.865 0.00187566
22.045 0.0385888
22.225 0.0329702
22.405 0.0206682
22.585 0.0274247
22.765 0.0476149
22.945 0.0154599
23.125 0.0144016
23.305 0.02413
23.485 0.0128597
23.665 0.0316414
23.845 0.0115731
24.025 0.0247124
24.205 0.0160042
24.385 0.0242713
24.565 0.018522
24.745 0.0383179
24.925 0.0378282
25.105 0.0106037
25.285 0.0261399
25.465 0.0155111
25.645 0.00798548
25.825 0.0105843
26.005 0.0220346
26.185 0.0797272
26.365 0.0377095
26.545 0.0178841
26.725 6.77582e-05
26.905 0.0294941
27.085 0.00611299
27.265 0.0606858
27.445 0.0545882
27.625 0.0243958
27.805 0.025855
27.985 0.0200935
28.165 -0.000659246
28.345 -0.0131215
28.525 -0.000685315
28.705 -0.00231946
28.885 0.00685741
29.065 -0.00157949
29.245 0.0272152
29.425 0.0252957
29.605 0.0894852
29.785 0.200545
29.965 0.180963
30.145 1.51496
30.325 1.88408
30.505 0.18309
30.685 0.0688433
30.865 0.010228
31.045 0.0223826
31.225 0.00371786
31.405 -0.0013757
31.585 0.0152085
31.765 0.000765777
31.945 0.0177577
32.125 0.0286575
32.305 0.0202944
32.485 -0.0032809
32.665 0.0175145
32.845 -0.00280406
33.025 0.0348428
33.205 0.0261054
33.385 0.00353821
33.565 0.0332971
33.745 0.00143853
33.925 0.0144094
34.105 0.00135313
34.285 0.0195016
34.465 0.100383
34.645 0.170651
34.825 0.0402595
35.005 0.0171267
35.185 0.0148789
35.365 -0.00183346
35.545 0.00808375
35.725 0.0103259
35.905 0.0189682
36.085 0.0210371
36.265 0.039272
36.445 0.0156784
36.625 -0.00300258
36.805 -0.0227979
36.985 -0.00964011
37.165 -0.0133436
37.345 0.0143968
37.525 -0.0075663
37.705 -0.00689262
37.885 -0.0105358
38.065 -0.00836879
38.245 0.00536892
38.425 -0.0126372
38.605 -0.00800669
38.785 0.00138958
38.965 -0.00741533
39.145 -0.0058667
39.325 0.00744652
39.505 0.0157086
39.685 0.0832619
39.865 0.464881
40.045 2.46814
40.225 1.20272
40.405 0.159919
40.585 0.0424332
40.765 0.00757078
40.945 0.00486932
41.125 -0.0104504
41.305 -0.00213985
41.485 -0.0109143
41.665 -0.00428128
41.845 -0.0211894
42.025 0.00452638
42.205 -0.0170774
42.385 0.0144856
42.565 0.0019249
42.745 -0.0180325
42.925 0.00700615
43.105 0.00922712
43.285 0.00901706
43.465 -0.0122786
43.645 0.0151862
43.825 0.0171783
44.005 0.0203344
44.185 0.03253
44.365 0.0301779
44.545 0.0276428
44.725 0.0420975
44.905 0.07579
45.085 0.613315
45.265 1.8416
45.445 0.409007
45.625 0.0730747
45.805 0.0604808
45.985 0.112749
46.165 0.672649
46.345 1.65403
46.525 0.287582
46.705 0.0496508
46.885 0.00168208
47.065 0.00182957
47.245 0.00247009
47.425 0.00568337
47.605 0.00288126
47.785 -0.00692432
47.965 -0.0128499
48.145 -0.0146519
48.325 0.00566972
48.505 0.00549013
48.685 0.133545
48.865 0.424067
49.045 0.113668
49.225 -0.00463442
49.405 -0.00352435
49.585 -0.0197107
49.765 -0.016054
49.945 -0.00787022
50.125 -0.00355298
50.305 -0.0123504
50.485 -0.0116154
50.665 -0.00878846
50.845 -0.00588442
51.025 -0.0074198
51.205 -0.00425924
51.385 -0.0146133
51.565 -0.0127608
51.745 -0.00397192
51.925 -0.019009
52.105 -0.014378
52.285 -0.0117906
52.465 -0.00608449
52.645 0.0351741
52.825 0.14891
53.005 0.671437
53.185 0.634528
53.365 0.115477
53.545 0.03005
53.725 -0.000134678
53.905 -0.00238702
54.085 0.00299854
54.265 0.000717222
54.445 -0.0111942
54.625 0.00736122
54.805 -0.00590224
54.985 -0.000155025
55.165 0.0028607
55.345 -0.00345799
55.525 -0.0079335
55.705 -0.000390067
55.885 0.0381048
56.065 0.127077
56.245 0.53823
56.425 0.35332
56.605 0.0568661
56.785 0.00320178
56.965 0.0115611
57.145 -0.00696678
57.325 -0.00338808
57.505 0.00102164
57.685 -0.0136477
57.865 -0.00842991
58.045 0.0135533
58.225 0.00874706
58.405 0.00987949
58.585 0.00494919
58.765 0.000126007
58.945 0.0277934
59.125 0.0459358
59.305 0.0258152
59.485 -0.0105276
59.665 0.000478331
59.845 0.000106197
60.025 0.0157775
60.205 0.0066823
60.385 0.00333481
60.565 -0.00533894
60.745 -0.00182349
60.925 0.00913265
61.105 0.00482666
61.285 0.0180476
61.465 0.22852
61.645 0.939723
61.825 0.640089
62.005 0.115651
62.185 0.0308327
62.365 -0.00325268
62.545 0.0353245
62.725 0.287307
62.905 0.466726
63.085 0.156454
63.265 0.011343
63.445 -0.00118423
63.625 -0.000676889
63.805 -0.000754325
63.985 0.00846586
64.165 -0.00437951
64.345 -0.00804626
64.525 -0.0105907
64.705 0.000295164
64.885 0.000991953
65.065 0.00409352
65.245 0.00591069
65.425 -0.00369893
65.605 0.00111929
65.785 0.00704032
65.965 0.00988034
66.145 0.0124952
66.325 0.0405626
66.505 0.189649
66.685 0.56989
66.865 0.423903
67.045 0.144071
67.225 0.0211303
67.405 0.0034199
67.585 0.00870566
67.765 0.00749127
67.945 -0.0168892